whichBlock,middleStim,leftStim,rightStim,stimNum,congruent,target,locationC,locationR,locationL,straightFace,imageSize,prac_block_loop.thisRepN,prac_block_loop.thisTrialN,prac_block_loop.thisN,prac_block_loop.thisIndex,prac_trial_loop.thisRepN,prac_trial_loop.thisTrialN,prac_trial_loop.thisN,prac_trial_loop.thisIndex,task_block_loop.thisRepN,task_block_loop.thisTrialN,task_block_loop.thisN,task_block_loop.thisIndex,task_trial_loop.thisRepN,task_trial_loop.thisTrialN,task_trial_loop.thisN,task_trial_loop.thisIndex,prac_blockText.started,prac_blockText.stopped,prac_reminder_text.started,prac_reminder_text.stopped,prac_reminder_keyResp.keys,prac_reminder_keyResp.rt,prac_reminder_keyResp.started,prac_reminder_keyResp.stopped,initFixation_img.started,initFixation_img.stopped,ISI,bigFace.started,bigFace.stopped,cover_background_2.started,cover_background_2.stopped,prac_centerImg.started,prac_centerImg.stopped,prac_stim_keyResp.keys,prac_stim_keyResp.rt,prac_stim_keyResp.started,prac_stim_keyResp.stopped,accuracy,prac_blockFeed_text.started,prac_blockFeed_text.stopped,prac_pressContinue.started,prac_pressContinue.stopped,prac_blockFeed_keyResp.keys,prac_blockFeed_keyResp.rt,prac_blockFeed_keyResp.started,prac_blockFeed_keyResp.stopped,task_blockText.started,task_blockText.stopped,task_blockReminders_keyResp.keys,task_blockReminders_keyResp.rt,task_blockReminders_keyResp.started,task_blockReminders_keyResp.stopped,bigFace_2.started,bigFace_2.stopped,cover_background.started,cover_background.stopped,task_centerImg.started,task_centerImg.stopped,task_fixImg.started,task_fixImg.stopped,task1_stim_keyResp.keys,task1_stim_keyResp.rt,task1_stim_keyResp.started,task1_stim_keyResp.stopped,id,cb,friendly,date,expName,psychopyVersion,frameRate,
a_halfV_trialTable_practice.csv,img/leftArrow.png,img/leftArrow.png,img/leftArrow.png,6,1,left,"[0, 0]","[0.0385, 0]","[-0.0385, 0]",img/neutralC/CFD-IF-620-218-N.jpg,"[0.035, 0.035]",0,0,0,0,0,0,0,12,,,,,,,,,17.319366245006677,None,17.319366245006677,None,right,0.21463900501839817,17.319366245006677,None,17.591161924006883,None,3.8246492985971945,19.85736964503303,None,19.85736964503303,20.21504062297754,19.98081712500425,20.180838869011495,['left'],[0.6306138359941542],19.85736964503303,None,1,,,,,,,,,,,,,,,,,,,,,,,,,,,999,A,A,2022-06-20_12h21.08.287,face_flanker_v1,2022.1.4,60.06903939712807,
a_halfV_trialTable_practice.csv,img/rightArrow.png,img/leftArrow.png,img/leftArrow.png,7,0,right,"[0, 0]","[0.0385, 0]","[-0.0385, 0]",img/neutralC/CFD-WF-029-002-N.jpg,"[0.035, 0.035]",0,0,0,0,0,1,1,19,,,,,,,,,,,,,,,,,,,3.7194388777555107,23.918426383985206,23.918426383985206,23.918426383985206,24.281111677002627,24.047121071023867,24.247341768990736,['right'],[0.5504263829789124],23.918426383985206,23.918426383985206,1,,,,,,,,,,,,,,,,,,,,,,,,,,,999,A,A,2022-06-20_12h21.08.287,face_flanker_v1,2022.1.4,60.06903939712807,
a_halfV_trialTable_practice.csv,img/rightArrow.png,img/rightArrow.png,img/rightArrow.png,5,1,right,"[0, 0]","[0.0385, 0]","[-0.0385, 0]",img/neutralC/CFD-WF-234-086-N.jpg,"[0.035, 0.035]",0,0,0,0,0,2,2,2,,,,,,,,,,,,,,,,,,,3.7935871743486973,27.884788430004846,27.884788430004846,27.884788430004846,28.246304569998756,28.031093825004064,28.229915218020324,['right'],[0.5637131290277466],27.884788430004846,27.884788430004846,1,,,,,,,,,,,,,,,,,,,,,,,,,,,999,A,A,2022-06-20_12h21.08.287,face_flanker_v1,2022.1.4,60.06903939712807,
a_halfV_trialTable_practice.csv,img/leftArrow.png,img/rightArrow.png,img/rightArrow.png,8,0,left,"[0, 0]","[0.0385, 0]","[-0.0385, 0]",img/neutralC/CFD-AM-220-134-N.jpg,"[0.035, 0.035]",0,0,0,0,0,3,3,16,,,,,,,,,,,,,,,,,,,3.7464929859719436,31.906907347030938,31.906907347030938,31.906907347030938,32.264365572016686,32.047574537980836,32.248156137007754,['left'],[0.662156792008318],31.906907347030938,31.906907347030938,1,,,,,,,,,,,,,,,,,,,,,,,,,,,999,A,A,2022-06-20_12h21.08.287,face_flanker_v1,2022.1.4,60.06903939712807,
a_halfV_trialTable_practice.csv,img/leftArrow.png,img/rightArrow.png,img/rightArrow.png,8,0,left,"[0, 0]","[0.0385, 0]","[-0.0385, 0]",img/neutralC/CFD-BF-049-032-N.jpg,"[0.035, 0.035]",0,0,0,0,0,4,4,0,,,,,,,,,,,,,,,,,,,3.848697394789579,35.89844511402771,35.89844511402771,35.89844511402771,36.264081726025324,36.03124113398371,36.247992592980154,['left'],[0.613122804032173],35.89844511402771,35.89844511402771,1,,,,,,,,,,,,,,,,,,,,,,,,,,,999,A,A,2022-06-20_12h21.08.287,face_flanker_v1,2022.1.4,60.06903939712807,
a_halfV_trialTable_practice.csv,img/leftArrow.png,img/rightArrow.png,img/rightArrow.png,8,0,left,"[0, 0]","[0.0385, 0]","[-0.0385, 0]",img/neutralC/CFD-IM-695-001-N.jpg,"[0.035, 0.035]",0,0,0,0,0,5,5,14,,,,,,,,,,,,,,,,,,,3.9128256513026054,39.97623546002433,39.97623546002433,39.97623546002433,40.33040481200442,40.114925768983085,40.33040481200442,['left'],[0.583928577019833],39.97623546002433,39.97623546002433,1,,,,,,,,,,,,,,,,,,,,,,,,,,,999,A,A,2022-06-20_12h21.08.287,face_flanker_v1,2022.1.4,60.06903939712807,
a_halfV_trialTable_practice.csv,img/rightArrow.png,img/leftArrow.png,img/leftArrow.png,7,0,right,"[0, 0]","[0.0385, 0]","[-0.0385, 0]",img/neutralC/CFD-LF-230-203-N.jpg,"[0.035, 0.035]",0,0,0,0,0,6,6,1,,,,,,,,,,,,,,,,,,,3.528056112224449,44.24751700100023,44.24751700100023,44.24751700100023,44.59784692199901,44.379608917981386,44.58078782400116,['right'],[0.667516281013377],44.24751700100023,44.24751700100023,1,,,,,,,,,,,,,,,,,,,,,,,,,,,999,A,A,2022-06-20_12h21.08.287,face_flanker_v1,2022.1.4,60.06903939712807,
a_halfV_trialTable_practice.csv,img/rightArrow.png,img/leftArrow.png,img/leftArrow.png,7,0,right,"[0, 0]","[0.0385, 0]","[-0.0385, 0]",img/neutralC/CFD-WM-039-018-N.jpg,"[0.035, 0.035]",0,0,0,0,0,7,7,13,,,,,,,,,,,,,,,,,,,3.68937875751503,47.99020905001089,47.99020905001089,47.99020905001089,48.34642067400273,48.113102814008016,48.31310113798827,['right'],[0.6394765190198086],47.99020905001089,47.99020905001089,1,,,,,,,,,,,,,,,,,,,,,,,,,,,999,A,A,2022-06-20_12h21.08.287,face_flanker_v1,2022.1.4,60.06903939712807,
a_halfV_trialTable_practice.csv,img/leftArrow.png,img/leftArrow.png,img/leftArrow.png,6,1,left,"[0, 0]","[0.0385, 0]","[-0.0385, 0]",img/neutralC/CFD-BF-233-116-N.jpg,"[0.035, 0.035]",0,0,0,0,0,8,8,5,,,,,,,,,,,,,,,,,,,3.9519038076152304,51.898980820027646,51.898980820027646,51.898980820027646,52.263728436024394,52.02958628901979,52.229888111003675,['left'],[0.5634783169953153],51.898980820027646,51.898980820027646,1,,,,,,,,,,,,,,,,,,,,,,,,,,,999,A,A,2022-06-20_12h21.08.287,face_flanker_v1,2022.1.4,60.06903939712807,
a_halfV_trialTable_practice.csv,img/leftArrow.png,img/rightArrow.png,img/rightArrow.png,8,0,left,"[0, 0]","[0.0385, 0]","[-0.0385, 0]",img/neutralC/CFD-BF-009-002-N.jpg,"[0.035, 0.035]",0,0,0,0,0,9,9,15,,,,,,,,,,,,,,,,,,,3.5180360721442883,56.09894766099751,56.09894766099751,56.09894766099751,56.44743918097811,56.230884057004005,56.431521313032135,['left'],[0.6195788740296848],56.09894766099751,56.09894766099751,1,,,,,,,,,,,,,,,,,,,,,,,,,,,999,A,A,2022-06-20_12h21.08.287,face_flanker_v1,2022.1.4,60.06903939712807,
a_halfV_trialTable_practice.csv,img/leftArrow.png,img/leftArrow.png,img/leftArrow.png,6,1,left,"[0, 0]","[0.0385, 0]","[-0.0385, 0]",img/neutralC/CFD-IM-652-191-N.jpg,"[0.035, 0.035]",0,0,0,0,0,10,10,18,,,,,,,,,,,,,,,,,,,3.7014028056112225,59.8511179080233,59.8511179080233,59.8511179080233,60.21357361401897,59.99777639599051,60.21357361401897,['left'],[0.5671331640332937],59.8511179080233,59.8511179080233,1,,,,,,,,,,,,,,,,,,,,,,,,,,,999,A,A,2022-06-20_12h21.08.287,face_flanker_v1,2022.1.4,60.06903939712807,
a_halfV_trialTable_practice.csv,img/rightArrow.png,img/rightArrow.png,img/rightArrow.png,5,1,right,"[0, 0]","[0.0385, 0]","[-0.0385, 0]",img/neutralC/CFD-LF-231-260-N.jpg,"[0.035, 0.035]",0,0,0,0,0,11,11,11,,,,,,,,,,,,,,,,,,,3.6923847695390783,63.783151309005916,63.783151309005916,63.783151309005916,64.14732631697552,63.91305628599366,64.11387789301807,['right'],[0.503125881019514],63.783151309005916,63.783151309005916,1,,,,,,,,,,,,,,,,,,,,,,,,,,,999,A,A,2022-06-20_12h21.08.287,face_flanker_v1,2022.1.4,60.06903939712807,
a_halfV_trialTable_practice.csv,img/leftArrow.png,img/leftArrow.png,img/leftArrow.png,6,1,left,"[0, 0]","[0.0385, 0]","[-0.0385, 0]",img/neutralC/CFD-BF-051-035-N.jpg,"[0.035, 0.035]",0,0,0,0,0,12,12,6,,,,,,,,,,,,,,,,,,,3.7855711422845695,67.70927214698168,67.70927214698168,67.70927214698168,68.06352911499562,67.84777067799587,68.06352911499562,['left'],[0.4600402810028754],67.70927214698168,67.70927214698168,1,,,,,,,,,,,,,,,,,,,,,,,,,,,999,A,A,2022-06-20_12h21.08.287,face_flanker_v1,2022.1.4,60.06903939712807,
a_halfV_trialTable_practice.csv,img/leftArrow.png,img/rightArrow.png,img/rightArrow.png,8,0,left,"[0, 0]","[0.0385, 0]","[-0.0385, 0]",img/neutralC/CFD-BF-231-202-N.jpg,"[0.035, 0.035]",0,0,0,0,0,13,13,9,,,,,,,,,,,,,,,,,,,3.9498997995991987,71.7171267910162,71.7171267910162,71.7171267910162,72.08090071502374,71.86386717000278,72.06355853000423,['left'],[0.5847016680054367],71.7171267910162,71.7171267910162,1,,,,,,,,,,,,,,,,,,,,,,,,,,,999,A,A,2022-06-20_12h21.08.287,face_flanker_v1,2022.1.4,60.06903939712807,
a_halfV_trialTable_practice.csv,img/leftArrow.png,img/leftArrow.png,img/leftArrow.png,6,1,left,"[0, 0]","[0.0385, 0]","[-0.0385, 0]",img/neutralC/CFD-LM-246-087-N.jpg,"[0.035, 0.035]",0,0,0,0,0,14,14,3,,,,,,,,,,,,,,,,,,,3.69438877755511,75.90412033098983,75.90412033098983,75.90412033098983,76.26420876098564,76.04792536702007,76.26420876098564,['left'],[0.45882447104668245],75.90412033098983,75.90412033098983,1,,,,,,,,,,,,,,,,,,,,,,,,,,,999,A,A,2022-06-20_12h21.08.287,face_flanker_v1,2022.1.4,60.06903939712807,
a_halfV_trialTable_practice.csv,img/rightArrow.png,img/leftArrow.png,img/leftArrow.png,7,0,right,"[0, 0]","[0.0385, 0]","[-0.0385, 0]",img/neutralC/CFD-BF-224-002-N.jpg,"[0.035, 0.035]",0,0,0,0,0,15,15,7,,,,,,,,,,,,,,,,,,,3.541082164328657,79.83755870797904,79.83755870797904,79.83755870797904,80.19698763400083,79.97972979402402,80.17956491402583,['right'],[0.6322871070005931],79.83755870797904,79.83755870797904,1,,,,,,,,,,,,,,,,,,,,,,,,,,,999,A,A,2022-06-20_12h21.08.287,face_flanker_v1,2022.1.4,60.06903939712807,
a_halfV_trialTable_practice.csv,img/rightArrow.png,img/leftArrow.png,img/leftArrow.png,7,0,right,"[0, 0]","[0.0385, 0]","[-0.0385, 0]",img/neutralC/CFD-MM-307-002-N.jpg,"[0.035, 0.035]",0,0,0,0,0,16,16,10,,,,,,,,,,,,,,,,,,,3.977955911823647,83.60392110102111,83.60392110102111,83.60392110102111,83.9638267569826,83.74703545600642,83.94700678501977,['right'],[0.5465732760494575],83.60392110102111,83.60392110102111,1,,,,,,,,,,,,,,,,,,,,,,,,,,,999,A,A,2022-06-20_12h21.08.287,face_flanker_v1,2022.1.4,60.06903939712807,
a_halfV_trialTable_practice.csv,img/rightArrow.png,img/rightArrow.png,img/rightArrow.png,5,1,right,"[0, 0]","[0.0385, 0]","[-0.0385, 0]",img/neutralC/CFD-WF-023-003-N.jpg,"[0.035, 0.035]",0,0,0,0,0,17,17,4,,,,,,,,,,,,,,,,,,,3.9248496993987976,87.83400844299467,87.83400844299467,87.83400844299467,88.19775335601298,87.98010858497582,88.17961248802021,['right'],[0.4518199040321633],87.83400844299467,87.83400844299467,1,,,,,,,,,,,,,,,,,,,,,,,,,,,999,A,A,2022-06-20_12h21.08.287,face_flanker_v1,2022.1.4,60.06903939712807,
a_halfV_trialTable_practice.csv,img/rightArrow.png,img/rightArrow.png,img/rightArrow.png,5,1,right,"[0, 0]","[0.0385, 0]","[-0.0385, 0]",img/neutralC/CFD-WM-233-106-N.jpg,"[0.035, 0.035]",0,0,0,0,0,18,18,17,,,,,,,,,,,,,,,,,,,3.653306613226453,91.99511786398944,91.99511786398944,91.99511786398944,92.34696639497997,92.12937575101387,92.33037966501433,['right'],[0.5525904350215569],91.99511786398944,91.99511786398944,1,,,,,,,,,,,,,,,,,,,,,,,,,,,999,A,A,2022-06-20_12h21.08.287,face_flanker_v1,2022.1.4,60.06903939712807,
a_halfV_trialTable_practice.csv,img/rightArrow.png,img/rightArrow.png,img/rightArrow.png,5,1,right,"[0, 0]","[0.0385, 0]","[-0.0385, 0]",img/neutralC/CFD-BM-018-001-N.jpg,"[0.035, 0.035]",0,0,0,0,0,19,19,8,,,,,,,,,,,,,,,,,,,3.567134268537074,95.90063181199366,95.90063181199366,95.90063181199366,96.2636049669818,96.04690951202065,96.24787013197783,['right'],[0.48733698605792597],95.90063181199366,95.90063181199366,1,,,,,,,,,,,,,,,,,,,,,,,,,,,999,A,A,2022-06-20_12h21.08.287,face_flanker_v1,2022.1.4,60.06903939712807,
a_halfV_trialTable_practice.csv,,,,,,,,,,,,0,0,0,0,,,,,,,,,,,,,,,,,,,,,,,,,,,,,,,,,,,99.48737053701188,None,99.48737053701188,None,right,1.936322649999056,99.48737053701188,None,,,,,,,,,,,,,,,,,,,999,A,A,2022-06-20_12h21.08.287,face_flanker_v1,2022.1.4,60.06903939712807,
a_halfV_trialTable_10.csv,img/leftArrow.png,img/leftArrow.png,img/leftArrow.png,6,1,left,"[0, 0]","[0.0385, 0]","[-0.0385, 0]",img/neutralC/CFD-AM-227-184-N.jpg,"[0.035, 0.035]",,,,,,,,,0,0,0,9,0,0,0,27,,,,,,,,,103.6929314309964,None,3.99498997995992,,,,,,,,,,,1,,,,,,,,,101.47754898498533,None,right,2.1700528300134465,101.47754898498533,None,105.9438776029856,None,105.9438776029856,106.29691133700544,106.07922475098167,106.27950178500032,105.9438776029856,None,['left'],[0.6351834860397503],105.9438776029856,None,999,A,A,2022-06-20_12h21.08.287,face_flanker_v1,2022.1.4,60.06903939712807,
a_halfV_trialTable_10.csv,img/leftArrow.png,img/rightArrow.png,img/rightArrow.png,8,0,left,"[0, 0]","[0.0385, 0]","[-0.0385, 0]",img/neutralC/CFD-IM-655-234-N.jpg,"[0.035, 0.035]",,,,,,,,,0,0,0,9,0,1,1,8,,,,,,,,,,,3.8887775551102206,,,,,,,,,,,1,,,,,,,,,,,,,,,110.16329678299371,110.16329678299371,110.16329678299371,110.51320210599806,110.29704386199592,110.49695024098037,110.16329678299371,110.16329678299371,['left'],[0.5659964070073329],110.16329678299371,110.16329678299371,999,A,A,2022-06-20_12h21.08.287,face_flanker_v1,2022.1.4,60.06903939712807,
a_halfV_trialTable_10.csv,img/rightArrow.png,img/leftArrow.png,img/leftArrow.png,7,0,right,"[0, 0]","[0.0385, 0]","[-0.0385, 0]",img/neutralC/CFD-AM-231-136-N.jpg,"[0.035, 0.035]",,,,,,,,,0,0,0,9,0,2,2,24,,,,,,,,,,,3.8517034068136273,,,,,,,,,,,1,,,,,,,,,,,,,,,114.27241062402027,114.27241062402027,114.27241062402027,114.63012183102546,114.41334273200482,114.61259636899922,114.27241062402027,114.27241062402027,['right'],[0.6154293440049514],114.27241062402027,114.27241062402027,999,A,A,2022-06-20_12h21.08.287,face_flanker_v1,2022.1.4,60.06903939712807,
a_halfV_trialTable_10.csv,img/rightArrow.png,img/rightArrow.png,img/rightArrow.png,5,1,right,"[0, 0]","[0.0385, 0]","[-0.0385, 0]",img/neutralC/CFD-AM-215-120-N.jpg,"[0.035, 0.035]",,,,,,,,,0,0,0,9,0,3,3,30,,,,,,,,,,,3.6082164328657313,,,,,,,,,,,1,,,,,,,,,,,,,,,118.33083045599051,118.33083045599051,118.33083045599051,118.69657470902894,118.462307934009,118.66319615300745,118.33083045599051,118.33083045599051,['right'],[0.458585694024805],118.33083045599051,118.33083045599051,999,A,A,2022-06-20_12h21.08.287,face_flanker_v1,2022.1.4,60.06903939712807,
a_halfV_trialTable_10.csv,img/rightArrow.png,img/rightArrow.png,img/rightArrow.png,5,1,right,"[0, 0]","[0.0385, 0]","[-0.0385, 0]",img/neutralC/CFD-MF-310-027-N.jpg,"[0.035, 0.035]",,,,,,,,,0,0,0,9,0,4,4,6,,,,,,,,,,,3.5250501002004007,,,,,,,,,,,1,,,,,,,,,,,,,,,122.15540026000235,122.15540026000235,122.15540026000235,122.51170920900768,122.29555726901162,122.49544631299796,122.15540026000235,122.15540026000235,['right'],[0.558495111996308],122.15540026000235,122.15540026000235,999,A,A,2022-06-20_12h21.08.287,face_flanker_v1,2022.1.4,60.06903939712807,
a_halfV_trialTable_10.csv,img/leftArrow.png,img/leftArrow.png,img/leftArrow.png,6,1,left,"[0, 0]","[0.0385, 0]","[-0.0385, 0]",img/neutralC/CFD-BM-225-154-N.jpg,"[0.035, 0.035]",,,,,,,,,0,0,0,9,0,5,5,21,,,,,,,,,,,3.9368737474949898,,,,,,,,,,,1,,,,,,,,,,,,,,,125.88460311997915,125.88460311997915,125.88460311997915,126.24599293799838,126.02861655398738,126.22846884699538,125.88460311997915,125.88460311997915,['left'],[0.5920923100202344],125.88460311997915,125.88460311997915,999,A,A,2022-06-20_12h21.08.287,face_flanker_v1,2022.1.4,60.06903939712807,
a_halfV_trialTable_10.csv,img/leftArrow.png,img/rightArrow.png,img/rightArrow.png,8,0,left,"[0, 0]","[0.0385, 0]","[-0.0385, 0]",img/neutralC/CFD-BF-023-010-N.jpg,"[0.035, 0.035]",,,,,,,,,0,0,0,9,0,6,6,23,,,,,,,,,,,3.8557114228456912,,,,,,,,,,,1,,,,,,,,,,,,,,,130.0565858670161,130.0565858670161,130.0565858670161,130.41388486901997,130.17852511402452,130.37853293702938,130.0565858670161,130.0565858670161,['left'],[0.5712906400440261],130.0565858670161,130.0565858670161,999,A,A,2022-06-20_12h21.08.287,face_flanker_v1,2022.1.4,60.06903939712807,
a_halfV_trialTable_10.csv,img/rightArrow.png,img/leftArrow.png,img/leftArrow.png,7,0,right,"[0, 0]","[0.0385, 0]","[-0.0385, 0]",img/neutralC/CFD-MF-301-024-N.jpg,"[0.035, 0.035]",,,,,,,,,0,0,0,9,0,7,7,18,,,,,,,,,,,3.730460921843687,,,,,,,,,,,1,,,,,,,,,,,,,,,134.114908381016,134.114908381016,134.114908381016,134.47978173202137,134.26158700301312,134.46222035598475,134.114908381016,134.114908381016,['right'],[0.6020499320584349],134.114908381016,134.114908381016,999,A,A,2022-06-20_12h21.08.287,face_flanker_v1,2022.1.4,60.06903939712807,
a_halfV_trialTable_10.csv,img/rightArrow.png,img/leftArrow.png,img/leftArrow.png,7,0,right,"[0, 0]","[0.0385, 0]","[-0.0385, 0]",img/neutralC/CFD-IM-736-361-N.jpg,"[0.035, 0.035]",,,,,,,,,0,0,0,9,0,8,8,9,,,,,,,,,,,3.730460921843687,,,,,,,,,,,1,,,,,,,,,,,,,,,138.06248759501614,138.06248759501614,138.06248759501614,138.41300139803207,138.1962735140114,138.3959292320069,138.06248759501614,138.06248759501614,['right'],[0.6306451070122421],138.06248759501614,138.06248759501614,999,A,A,2022-06-20_12h21.08.287,face_flanker_v1,2022.1.4,60.06903939712807,
a_halfV_trialTable_10.csv,img/rightArrow.png,img/leftArrow.png,img/leftArrow.png,7,0,right,"[0, 0]","[0.0385, 0]","[-0.0385, 0]",img/neutralC/CFD-AM-246-184-N.jpg,"[0.035, 0.035]",,,,,,,,,0,0,0,9,0,9,9,5,,,,,,,,,,,3.5010020040080163,,,,,,,,,,,1,,,,,,,,,,,,,,,141.99875558901113,141.99875558901113,141.99875558901113,142.36289814900374,142.14513914700365,142.34623224003008,141.99875558901113,141.99875558901113,['right'],[0.6181274540140294],141.99875558901113,141.99875558901113,999,A,A,2022-06-20_12h21.08.287,face_flanker_v1,2022.1.4,60.06903939712807,
a_halfV_trialTable_10.csv,img/rightArrow.png,img/rightArrow.png,img/rightArrow.png,5,1,right,"[0, 0]","[0.0385, 0]","[-0.0385, 0]",img/neutralC/CFD-IM-689-263-N.jpg,"[0.035, 0.035]",,,,,,,,,0,0,0,9,0,10,10,4,,,,,,,,,,,3.658316633266533,,,,,,,,,,,1,,,,,,,,,,,,,,,145.72623973101145,145.72623973101145,145.72623973101145,146.07825748197502,145.86199271399528,146.06255226401845,145.72623973101145,145.72623973101145,['right'],[0.5442376400460489],145.72623973101145,145.72623973101145,999,A,A,2022-06-20_12h21.08.287,face_flanker_v1,2022.1.4,60.06903939712807,
a_halfV_trialTable_10.csv,img/leftArrow.png,img/leftArrow.png,img/leftArrow.png,6,1,left,"[0, 0]","[0.0385, 0]","[-0.0385, 0]",img/neutralC/CFD-BF-041-001-N.jpg,"[0.035, 0.035]",,,,,,,,,0,0,0,9,0,11,11,13,,,,,,,,,,,3.623246492985972,,,,,,,,,,,1,,,,,,,,,,,,,,,149.61529998702463,149.61529998702463,149.61529998702463,149.98016372701386,149.7626820540172,149.9626708580181,149.61529998702463,149.61529998702463,['left'],[0.740028117026668],149.61529998702463,149.61529998702463,999,A,A,2022-06-20_12h21.08.287,face_flanker_v1,2022.1.4,60.06903939712807,
,,,,,,,,,,,,,,,,,,,,,,,,,,,,,,,,,,,,,,3.9228456913827654,,,,,,,,,,,,,,,,,,,,,,,,,,,,,,,,,,,,,,,,,,,,,
