whichBlock,middleStim,leftStim,rightStim,stimNum,congruent,target,locationC,locationR,locationL,straightFace,imageSize,whichSurpriseBlock,firstTextA,firstLeft,firstRight,surp_csv_name,surpriseFaces,new,prac_block_loop.thisRepN,prac_block_loop.thisTrialN,prac_block_loop.thisN,prac_block_loop.thisIndex,prac_trial_loop.thisRepN,prac_trial_loop.thisTrialN,prac_trial_loop.thisN,prac_trial_loop.thisIndex,task_block_loop.thisRepN,task_block_loop.thisTrialN,task_block_loop.thisN,task_block_loop.thisIndex,task_trial_loop.thisRepN,task_trial_loop.thisTrialN,task_trial_loop.thisN,task_trial_loop.thisIndex,surprise_block_loop.thisRepN,surprise_block_loop.thisTrialN,surprise_block_loop.thisN,surprise_block_loop.thisIndex,trials.thisRepN,trials.thisTrialN,trials.thisN,trials.thisIndex,trials_2.thisRepN,trials_2.thisTrialN,trials_2.thisN,trials_2.thisIndex,prac_blockText.started,prac_reminder_text.started,prac_reminder_keyResp.started,prac_reminder_keyResp.keys,prac_reminder_keyResp.rt,initFixation_img.started,ISI,bigFace.started,cover_background_2.started,prac_stim_keyResp.started,prac_centerImg.started,prac_centerImg.stopped,cover_background_2.stopped,bigFace.stopped,prac_stim_keyResp.stopped,prac_stim_keyResp.keys,accuracy,prac_stim_keyResp.rt,prac_blockFeed_text.started,prac_pressContinue.started,prac_blockFeed_keyResp.started,prac_blockFeed_keyResp.keys,prac_blockFeed_keyResp.rt,ringBell_text.started,bellKey.started,bellKey.keys,bellKey.rt,task_blockText.started,task_blockReminders_keyResp.started,task_blockReminders_keyResp.keys,task_blockReminders_keyResp.rt,bigFace_2.started,cover_background.started,task_fixImg.started,task1_stim_keyResp.started,task_centerImg.started,task_centerImg.stopped,cover_background.stopped,bigFace_2.stopped,task_fixImg.stopped,task1_stim_keyResp.stopped,task1_stim_keyResp.keys,task1_stim_keyResp.rt,blockFeedCat,task_blockFeed_text.started,task_blockFeed_keyResp.started,task_blockFeed_keyResp.keys,task_blockFeed_keyResp.rt,ringBell_text_2.started,bellKey_2.started,bellKey_2.keys,bellKey_2.rt,errorNum_text.started,textbox_errorNum.started,errorN_key_resp.started,textbox_errorNum.text,errorN_key_resp.keys,errorN_key_resp.rt,errorPercent_text.started,textbox_errorPercent.started,errorN_key_resp_2.started,textbox_errorPercent.text,errorN_key_resp_2.keys,errorN_key_resp_2.rt,botherRate_text.started,textbox_botherRate.started,botherRate_key_resp.started,textbox_botherRate.text,botherRate_key_resp.keys,botherRate_key_resp.rt,ringBell_text_3.started,bellKey_3.started,bellKey_3.keys,bellKey_3.rt,instruct_surprise1.started,instruct_surp1_key_resp.keys,instruct_surp1_key_resp.rt,instruct_surprise1_5.started,prac_firstSlider_2.started,text_7.started,text_8.started,prac_firstSlider_2.response,prac_firstSlider_2.rt,instruct_surprise1_7.started,prac_firstSlider_3.started,text_9.started,text_10.started,prac_firstSlider_3.response,prac_firstSlider_3.rt,task_blockText_2.started,task_blockReminders_keyResp_2.started,task_blockReminders_keyResp_2.keys,task_blockReminders_keyResp_2.rt,polygon2.started,first_surpStimuliA1.started,fStimA1.started,firstStim_sliderA1.started,first_mouseA1.started,text.started,text_2.started,firstStim_sliderA1.response,firstStim_sliderA1.rt,first_mouseA1.x,first_mouseA1.y,first_mouseA1.leftButton,first_mouseA1.midButton,first_mouseA1.rightButton,first_mouseA1.time,thisISI3,polygon.started,polygon.stopped,polygon2.stopped,ringBell_text_4.started,bellKey_4.started,id,cb,date,expName,psychopyVersion,frameRate,
csv_files/a_halfV_trialTable_practice.csv,img/leftArrow.png,img/leftArrow.png,img/leftArrow.png,6,1,left,"[0, 0]","[0.0385, 0]","[-0.0385, 0]",img/neutralC/CFD-LM-228-188-N.jpg,"[0.035, 0.035]",,,,,,,,0,0,0,0,0,0,0,1,,,,,,,,,,,,,,,,,,,,,147.62924179999936,147.62924179999936,147.62924179999936,8,8.683610599999156,156.34531570000036,3.920841683366733,158.48246619999918,158.48246619999918,158.48246619999918,158.49104140000054,158.6936638999996,158.83639659999972,162.52586370000063,162.52586370000063,None,0,,,,,,,,,,,,,,,,,,,,,,,,,,,,,,,,,,,,,,,,,,,,,,,,,,,,,,,,,,,,,,,,,,,,,,,,,,,,,,,,,,,,,,,,,,,,,,,,,,200003,A,2022-10-07_17h41.54.941,mfe_b,2022.2.4,239.8558945772221,
csv_files/a_halfV_trialTable_practice.csv,img/rightArrow.png,img/rightArrow.png,img/rightArrow.png,5,1,right,"[0, 0]","[0.0385, 0]","[-0.0385, 0]",img/neutralC/CFD-AM-237-154-N.jpg,"[0.035, 0.035]",,,,,,,,0,0,0,0,0,1,1,14,,,,,,,,,,,,,,,,,,,,,,,,,,,3.5370741482965933,162.52586370000063,162.52586370000063,162.52586370000063,162.55612099999962,162.75706119999995,162.87619090000044,166.18485110000074,166.18485110000074,['8'],1,[0.6976728999998159],,,,,,,,,,,,,,,,,,,,,,,,,,,,,,,,,,,,,,,,,,,,,,,,,,,,,,,,,,,,,,,,,,,,,,,,,,,,,,,,,,,,,,,,,,,,,,,,,200003,A,2022-10-07_17h41.54.941,mfe_b,2022.2.4,239.8558945772221,
csv_files/a_halfV_trialTable_practice.csv,img/rightArrow.png,img/leftArrow.png,img/leftArrow.png,7,0,right,"[0, 0]","[0.0385, 0]","[-0.0385, 0]",img/neutralC/CFD-WF-201-156-N.jpg,"[0.035, 0.035]",,,,,,,,0,0,0,0,0,2,2,3,,,,,,,,,,,,,,,,,,,,,,,,,,,3.5380761523046096,166.18485110000074,166.18485110000074,166.18485110000074,166.21954790000018,166.42193989999942,166.53527469999972,169.84492379999938,169.84492379999938,['1'],0,[0.5437558000012359],,,,,,,,,,,,,,,,,,,,,,,,,,,,,,,,,,,,,,,,,,,,,,,,,,,,,,,,,,,,,,,,,,,,,,,,,,,,,,,,,,,,,,,,,,,,,,,,,200003,A,2022-10-07_17h41.54.941,mfe_b,2022.2.4,239.8558945772221,
csv_files/a_halfV_trialTable_practice.csv,img/leftArrow.png,img/leftArrow.png,img/leftArrow.png,6,1,left,"[0, 0]","[0.0385, 0]","[-0.0385, 0]",img/neutralC/CFD-BM-015-015-N.jpg,"[0.035, 0.035]",,,,,,,,0,0,0,0,0,3,3,5,,,,,,,,,,,,,,,,,,,,,,,,,,,3.756513026052104,169.84492379999938,169.84492379999938,169.84492379999938,169.87616069999967,170.07814560000043,170.19558890000008,173.72545349999928,173.72545349999928,['1'],1,[0.5899036000009801],,,,,,,,,,,,,,,,,,,,,,,,,,,,,,,,,,,,,,,,,,,,,,,,,,,,,,,,,,,,,,,,,,,,,,,,,,,,,,,,,,,,,,,,,,,,,,,,,200003,A,2022-10-07_17h41.54.941,mfe_b,2022.2.4,239.8558945772221,
csv_files/a_halfV_trialTable_practice.csv,img/rightArrow.png,img/rightArrow.png,img/rightArrow.png,5,1,right,"[0, 0]","[0.0385, 0]","[-0.0385, 0]",img/neutralC/CFD-IM-615-167-N.jpg,"[0.035, 0.035]",,,,,,,,0,0,0,0,0,4,4,6,,,,,,,,,,,,,,,,,,,,,,,,,,,3.9929859719438876,173.72545349999928,173.72545349999928,173.72545349999928,173.75184380000064,173.9534406999992,174.0766734000008,177.82558120000067,177.82558120000067,['8'],1,[0.645578800000294],,,,,,,,,,,,,,,,,,,,,,,,,,,,,,,,,,,,,,,,,,,,,,,,,,,,,,,,,,,,,,,,,,,,,,,,,,,,,,,,,,,,,,,,,,,,,,,,,200003,A,2022-10-07_17h41.54.941,mfe_b,2022.2.4,239.8558945772221,
csv_files/a_halfV_trialTable_practice.csv,img/rightArrow.png,img/leftArrow.png,img/leftArrow.png,7,0,right,"[0, 0]","[0.0385, 0]","[-0.0385, 0]",img/neutralC/CFD-AF-205-155-N.jpg,"[0.035, 0.035]",,,,,,,,0,0,0,0,0,5,5,7,,,,,,,,,,,,,,,,,,,,,,,,,,,3.5741482965931866,177.82558120000067,177.82558120000067,177.82558120000067,177.87800880000032,178.0774368000002,178.18025859999943,181.52126150000004,181.52126150000004,['8'],1,[0.6381262000013521],,,,,,,,,,,,,,,,,,,,,,,,,,,,,,,,,,,,,,,,,,,,,,,,,,,,,,,,,,,,,,,,,,,,,,,,,,,,,,,,,,,,,,,,,,,,,,,,,200003,A,2022-10-07_17h41.54.941,mfe_b,2022.2.4,239.8558945772221,
csv_files/a_halfV_trialTable_practice.csv,img/rightArrow.png,img/leftArrow.png,img/leftArrow.png,7,0,right,"[0, 0]","[0.0385, 0]","[-0.0385, 0]",img/neutralC/CFD-WF-225-101-N.jpg,"[0.035, 0.035]",,,,,,,,0,0,0,0,0,6,6,16,,,,,,,,,,,,,,,,,,,,,,,,,,,3.5370741482965933,181.52126150000004,181.52126150000004,181.52126150000004,181.55191259999992,181.7539457999992,181.87038009999924,185.1787991000001,185.1787991000001,['8'],1,[0.6308950000002369],,,,,,,,,,,,,,,,,,,,,,,,,,,,,,,,,,,,,,,,,,,,,,,,,,,,,,,,,,,,,,,,,,,,,,,,,,,,,,,,,,,,,,,,,,,,,,,,,200003,A,2022-10-07_17h41.54.941,mfe_b,2022.2.4,239.8558945772221,
csv_files/a_halfV_trialTable_practice.csv,img/leftArrow.png,img/rightArrow.png,img/rightArrow.png,8,0,left,"[0, 0]","[0.0385, 0]","[-0.0385, 0]",img/neutralC/CFD-BM-029-024-N.jpg,"[0.035, 0.035]",,,,,,,,0,0,0,0,0,7,7,9,,,,,,,,,,,,,,,,,,,,,,,,,,,3.909819639278557,185.1787991000001,185.1787991000001,185.1787991000001,185.21500519999972,185.41843920000065,185.53224199999931,189.21752150000066,189.21752150000066,['1'],1,[0.5916866000006848],,,,,,,,,,,,,,,,,,,,,,,,,,,,,,,,,,,,,,,,,,,,,,,,,,,,,,,,,,,,,,,,,,,,,,,,,,,,,,,,,,,,,,,,,,,,,,,,,200003,A,2022-10-07_17h41.54.941,mfe_b,2022.2.4,239.8558945772221,
csv_files/a_halfV_trialTable_practice.csv,img/rightArrow.png,img/rightArrow.png,img/rightArrow.png,5,1,right,"[0, 0]","[0.0385, 0]","[-0.0385, 0]",img/neutralC/CFD-WF-203-229-N.jpg,"[0.035, 0.035]",,,,,,,,0,0,0,0,0,8,8,8,,,,,,,,,,,,,,,,,,,,,,,,,,,3.687374749498998,189.21752150000066,189.21752150000066,189.21752150000066,189.24501679999958,189.44457169999987,189.5667967999998,193.0344647999991,193.0344647999991,['8'],1,[0.5127398000004177],,,,,,,,,,,,,,,,,,,,,,,,,,,,,,,,,,,,,,,,,,,,,,,,,,,,,,,,,,,,,,,,,,,,,,,,,,,,,,,,,,,,,,,,,,,,,,,,,200003,A,2022-10-07_17h41.54.941,mfe_b,2022.2.4,239.8558945772221,
csv_files/a_halfV_trialTable_practice.csv,img/leftArrow.png,img/rightArrow.png,img/rightArrow.png,8,0,left,"[0, 0]","[0.0385, 0]","[-0.0385, 0]",img/neutralC/CFD-BF-007-001-N.jpg,"[0.035, 0.035]",,,,,,,,0,0,0,0,0,9,9,2,,,,,,,,,,,,,,,,,,,,,,,,,,,3.902805611222445,193.0344647999991,193.0344647999991,193.0344647999991,193.06132439999965,193.26770149999902,193.38737439999932,197.07353619999958,197.07353619999958,['1'],1,[0.5217406000010669],,,,,,,,,,,,,,,,,,,,,,,,,,,,,,,,,,,,,,,,,,,,,,,,,,,,,,,,,,,,,,,,,,,,,,,,,,,,,,,,,,,,,,,,,,,,,,,,,200003,A,2022-10-07_17h41.54.941,mfe_b,2022.2.4,239.8558945772221,
csv_files/a_halfV_trialTable_practice.csv,img/rightArrow.png,img/leftArrow.png,img/leftArrow.png,7,0,right,"[0, 0]","[0.0385, 0]","[-0.0385, 0]",img/neutralC/CFD-IM-736-361-N.jpg,"[0.035, 0.035]",,,,,,,,0,0,0,0,0,10,10,0,,,,,,,,,,,,,,,,,,,,,,,,,,,3.700400801603206,197.07353619999958,197.07353619999958,197.07353619999958,197.0906458999998,197.29467560000012,197.42401099999915,200.89654589999918,200.89654589999918,['8'],1,[0.5472702000006393],,,,,,,,,,,,,,,,,,,,,,,,,,,,,,,,,,,,,,,,,,,,,,,,,,,,,,,,,,,,,,,,,,,,,,,,,,,,,,,,,,,,,,,,,,,,,,,,,200003,A,2022-10-07_17h41.54.941,mfe_b,2022.2.4,239.8558945772221,
csv_files/a_halfV_trialTable_practice.csv,img/leftArrow.png,img/leftArrow.png,img/leftArrow.png,6,1,left,"[0, 0]","[0.0385, 0]","[-0.0385, 0]",img/neutralC/CFD-IM-607-018-N.jpg,"[0.035, 0.035]",,,,,,,,0,0,0,0,0,11,11,17,,,,,,,,,,,,,,,,,,,,,,,,,,,3.965931863727455,200.89654589999918,200.89654589999918,200.89654589999918,200.92802879999908,201.12928830000055,201.2456848999991,204.97077510000054,204.97077510000054,['1'],1,[0.5454171000019414],,,,,,,,,,,,,,,,,,,,,,,,,,,,,,,,,,,,,,,,,,,,,,,,,,,,,,,,,,,,,,,,,,,,,,,,,,,,,,,,,,,,,,,,,,,,,,,,,200003,A,2022-10-07_17h41.54.941,mfe_b,2022.2.4,239.8558945772221,
csv_files/a_halfV_trialTable_practice.csv,img/leftArrow.png,img/rightArrow.png,img/rightArrow.png,8,0,left,"[0, 0]","[0.0385, 0]","[-0.0385, 0]",img/neutralC/CFD-BF-213-188-N.jpg,"[0.035, 0.035]",,,,,,,,0,0,0,0,0,12,12,15,,,,,,,,,,,,,,,,,,,,,,,,,,,3.975951903807615,204.97077510000054,204.97077510000054,204.97077510000054,205.01255180000044,205.21452169999975,205.32366700000057,209.08058320000055,209.08058320000055,['1'],1,[0.6140256999988196],,,,,,,,,,,,,,,,,,,,,,,,,,,,,,,,,,,,,,,,,,,,,,,,,,,,,,,,,,,,,,,,,,,,,,,,,,,,,,,,,,,,,,,,,,,,,,,,,200003,A,2022-10-07_17h41.54.941,mfe_b,2022.2.4,239.8558945772221,
csv_files/a_halfV_trialTable_practice.csv,img/rightArrow.png,img/rightArrow.png,img/rightArrow.png,5,1,right,"[0, 0]","[0.0385, 0]","[-0.0385, 0]",img/neutralC/CFD-BF-005-001-N.jpg,"[0.035, 0.035]",,,,,,,,0,0,0,0,0,13,13,13,,,,,,,,,,,,,,,,,,,,,,,,,,,3.711422845691383,209.08058320000055,209.08058320000055,209.08058320000055,209.09755290000066,209.30015099999946,209.4360553000006,212.9166968999998,212.9166968999998,['8'],1,[0.6672472000009293],,,,,,,,,,,,,,,,,,,,,,,,,,,,,,,,,,,,,,,,,,,,,,,,,,,,,,,,,,,,,,,,,,,,,,,,,,,,,,,,,,,,,,,,,,,,,,,,,200003,A,2022-10-07_17h41.54.941,mfe_b,2022.2.4,239.8558945772221,
csv_files/a_halfV_trialTable_practice.csv,img/leftArrow.png,img/leftArrow.png,img/leftArrow.png,6,1,left,"[0, 0]","[0.0385, 0]","[-0.0385, 0]",img/neutralC/CFD-IM-632-097-N.jpg,"[0.035, 0.035]",,,,,,,,0,0,0,0,0,14,14,4,,,,,,,,,,,,,,,,,,,,,,,,,,,3.929859719438878,212.9166968999998,212.9166968999998,212.9166968999998,212.94400060000044,213.1482617999991,213.27090680000038,216.95718099999976,216.95718099999976,['1'],1,[0.7968444000016461],,,,,,,,,,,,,,,,,,,,,,,,,,,,,,,,,,,,,,,,,,,,,,,,,,,,,,,,,,,,,,,,,,,,,,,,,,,,,,,,,,,,,,,,,,,,,,,,,200003,A,2022-10-07_17h41.54.941,mfe_b,2022.2.4,239.8558945772221,
csv_files/a_halfV_trialTable_practice.csv,img/leftArrow.png,img/leftArrow.png,img/leftArrow.png,6,1,left,"[0, 0]","[0.0385, 0]","[-0.0385, 0]",img/neutralC/CFD-BM-004-002-N.jpg,"[0.035, 0.035]",,,,,,,,0,0,0,0,0,15,15,18,,,,,,,,,,,,,,,,,,,,,,,,,,,3.75250501002004,216.95718099999976,216.95718099999976,216.95718099999976,216.99907750000057,217.20071619999908,217.31090960000074,220.8399902000001,220.8399902000001,['1'],1,[0.6215406999999686],,,,,,,,,,,,,,,,,,,,,,,,,,,,,,,,,,,,,,,,,,,,,,,,,,,,,,,,,,,,,,,,,,,,,,,,,,,,,,,,,,,,,,,,,,,,,,,,,200003,A,2022-10-07_17h41.54.941,mfe_b,2022.2.4,239.8558945772221,
csv_files/a_halfV_trialTable_practice.csv,img/leftArrow.png,img/rightArrow.png,img/rightArrow.png,8,0,left,"[0, 0]","[0.0385, 0]","[-0.0385, 0]",img/neutralC/CFD-IM-635-010-N.jpg,"[0.035, 0.035]",,,,,,,,0,0,0,0,0,16,16,10,,,,,,,,,,,,,,,,,,,,,,,,,,,3.938877755511022,220.8399902000001,220.8399902000001,220.8399902000001,220.86153829999967,221.06470439999975,221.19274570000016,224.88375470000028,224.88375470000028,['1'],1,[0.6518146000016714],,,,,,,,,,,,,,,,,,,,,,,,,,,,,,,,,,,,,,,,,,,,,,,,,,,,,,,,,,,,,,,,,,,,,,,,,,,,,,,,,,,,,,,,,,,,,,,,,200003,A,2022-10-07_17h41.54.941,mfe_b,2022.2.4,239.8558945772221,
csv_files/a_halfV_trialTable_practice.csv,img/rightArrow.png,img/leftArrow.png,img/leftArrow.png,7,0,right,"[0, 0]","[0.0385, 0]","[-0.0385, 0]",img/neutralC/CFD-AF-218-157-N.jpg,"[0.035, 0.035]",,,,,,,,0,0,0,0,0,17,17,11,,,,,,,,,,,,,,,,,,,,,,,,,,,3.880761523046092,224.88375470000028,224.88375470000028,224.88375470000028,224.9345071000007,225.13448430000062,225.2401191000008,228.89331579999998,228.89331579999998,['1'],0,[1.0063728999994055],,,,,,,,,,,,,,,,,,,,,,,,,,,,,,,,,,,,,,,,,,,,,,,,,,,,,,,,,,,,,,,,,,,,,,,,,,,,,,,,,,,,,,,,,,,,,,,,,200003,A,2022-10-07_17h41.54.941,mfe_b,2022.2.4,239.8558945772221,
csv_files/a_halfV_trialTable_practice.csv,img/rightArrow.png,img/rightArrow.png,img/rightArrow.png,5,1,right,"[0, 0]","[0.0385, 0]","[-0.0385, 0]",img/neutralC/CFD-BM-231-155-N.jpg,"[0.035, 0.035]",,,,,,,,0,0,0,0,0,18,18,12,,,,,,,,,,,,,,,,,,,,,,,,,,,3.8476953907815634,228.89331579999998,228.89331579999998,228.89331579999998,228.9159899999995,229.1215267000007,229.2437886000007,232.8640051000002,232.8640051000002,['8'],1,[0.5595880000000761],,,,,,,,,,,,,,,,,,,,,,,,,,,,,,,,,,,,,,,,,,,,,,,,,,,,,,,,,,,,,,,,,,,,,,,,,,,,,,,,,,,,,,,,,,,,,,,,,200003,A,2022-10-07_17h41.54.941,mfe_b,2022.2.4,239.8558945772221,
csv_files/a_halfV_trialTable_practice.csv,img/leftArrow.png,img/rightArrow.png,img/rightArrow.png,8,0,left,"[0, 0]","[0.0385, 0]","[-0.0385, 0]",img/neutralC/CFD-BF-017-003-N.jpg,"[0.035, 0.035]",,,,,,,,0,0,0,0,0,19,19,19,,,,,,,,,,,,,,,,,,,,,,,,,,,3.8336673346693386,232.8640051000002,232.8640051000002,232.8640051000002,232.89821289999963,233.1003679000005,233.21711689999938,236.70595239999966,236.70595239999966,['1'],1,[0.5586236999988614],,,,,,,,,,,,,,,,,,,,,,,,,,,,,,,,,,,,,,,,,,,,,,,,,,,,,,,,,,,,,,,,,,,,,,,,,,,,,,,,,,,,,,,,,,,,,,,,,200003,A,2022-10-07_17h41.54.941,mfe_b,2022.2.4,239.8558945772221,
csv_files/a_halfV_trialTable_practice.csv,,,,,,,,,,,,,,,,,,,0,0,0,0,,,,,,,,,,,,,,,,,,,,,,,,,,,,,,,,,,,,,,,,,,,236.70595239999966,236.70595239999966,236.70595239999966,8,1.386447599999883,,,,,,,,,,,,,,,,,,,,,,,,,,,,,,,,,,,,,,,,,,,,,,,,,,,,,,,,,,,,,,,,,,,,,,,,,,,,,,,,,,,,,,,,,,,,200003,A,2022-10-07_17h41.54.941,mfe_b,2022.2.4,239.8558945772221,
,,,,,,,,,,,,,,,,,,,,,,,,,,,,,,,,,,,,,,,,,,,,,,,,,,,,,,,,,,,,,,,,,,,,,,238.10235269999976,238.10235269999976,c,210.00186610000128,,,,,,,,,,,,,,,,,,,,,,,,,,,,,,,,,,,,,,,,,,,,,,,,,,,,,,,,,,,,,,,,,,,,,,,,,,,,,,,,,,,,,,,,200003,A,2022-10-07_17h41.54.941,mfe_b,2022.2.4,239.8558945772221,
csv_files/a_halfV_trialTable_3.csv,img/rightArrow.png,img/rightArrow.png,img/rightArrow.png,5,1,right,"[0, 0]","[0.0385, 0]","[-0.0385, 0]",img/neutralC/CFD-WF-002-004-N.jpg,"[0.035, 0.035]",,,,,,,,,,,,,,,,0,0,0,2,0,0,0,28,,,,,,,,,,,,,,,,,,508.77362600000015,3.866733466933868,,,,,,,,,,1,,,,,,,,,,,448.1329542000003,448.1329542000003,8,60.62063730000045,510.90836169999966,510.90836169999966,510.90836169999966,510.90836169999966,510.9181769000006,511.1249224000003,511.2607103999999,514.8767052000003,514.8767052000003,514.8767052000003,['8'],[0.5900648000006186],,,,,,,,,,,,,,,,,,,,,,,,,,,,,,,,,,,,,,,,,,,,,,,,,,,,,,,,,,,,,,,,,,,,,,,,200003,A,2022-10-07_17h41.54.941,mfe_b,2022.2.4,239.8558945772221,
csv_files/a_halfV_trialTable_3.csv,img/rightArrow.png,img/leftArrow.png,img/leftArrow.png,7,0,right,"[0, 0]","[0.0385, 0]","[-0.0385, 0]",img/neutralC/CFD-BM-032-024-N.jpg,"[0.035, 0.035]",,,,,,,,,,,,,,,,0,0,0,2,0,1,1,23,,,,,,,,,,,,,,,,,,,3.965931863727455,,,,,,,,,,1,,,,,,,,,,,,,,,514.8767052000003,514.8767052000003,514.8767052000003,514.8767052000003,514.9295517999999,515.1334368999997,515.2276832000007,518.9433160000008,518.9433160000008,518.9433160000008,['8'],[0.6028046999999788],,,,,,,,,,,,,,,,,,,,,,,,,,,,,,,,,,,,,,,,,,,,,,,,,,,,,,,,,,,,,,,,,,,,,,,,200003,A,2022-10-07_17h41.54.941,mfe_b,2022.2.4,239.8558945772221,
csv_files/a_halfV_trialTable_3.csv,img/leftArrow.png,img/rightArrow.png,img/rightArrow.png,8,0,left,"[0, 0]","[0.0385, 0]","[-0.0385, 0]",img/neutralC/CFD-BF-006-017-N.jpg,"[0.035, 0.035]",,,,,,,,,,,,,,,,0,0,0,2,0,2,2,2,,,,,,,,,,,,,,,,,,,3.7284569138276553,,,,,,,,,,1,,,,,,,,,,,,,,,518.9433160000008,518.9433160000008,518.9433160000008,518.9433160000008,518.9921708999991,519.1957242000008,519.2970788999992,522.7725790999993,522.7725790999993,522.7725790999993,['1'],[0.47484240000085265],,,,,,,,,,,,,,,,,,,,,,,,,,,,,,,,,,,,,,,,,,,,,,,,,,,,,,,,,,,,,,,,,,,,,,,,200003,A,2022-10-07_17h41.54.941,mfe_b,2022.2.4,239.8558945772221,
csv_files/a_halfV_trialTable_3.csv,img/leftArrow.png,img/leftArrow.png,img/leftArrow.png,6,1,left,"[0, 0]","[0.0385, 0]","[-0.0385, 0]",img/neutralC/CFD-WM-256-138-N.jpg,"[0.035, 0.035]",,,,,,,,,,,,,,,,0,0,0,2,0,3,3,14,,,,,,,,,,,,,,,,,,,3.6713426853707416,,,,,,,,,,1,,,,,,,,,,,,,,,522.7725790999993,522.7725790999993,522.7725790999993,522.7725790999993,522.8262642999998,523.0290081999992,523.1241394999997,526.5616919999993,526.5616919999993,526.5616919999993,['1'],[0.4911969000004319],,,,,,,,,,,,,,,,,,,,,,,,,,,,,,,,,,,,,,,,,,,,,,,,,,,,,,,,,,,,,,,,,,,,,,,,200003,A,2022-10-07_17h41.54.941,mfe_b,2022.2.4,239.8558945772221,
csv_files/a_halfV_trialTable_3.csv,img/rightArrow.png,img/rightArrow.png,img/rightArrow.png,5,1,right,"[0, 0]","[0.0385, 0]","[-0.0385, 0]",img/neutralC/CFD-WF-229-004-N.jpg,"[0.035, 0.035]",,,,,,,,,,,,,,,,0,0,0,2,0,4,4,4,,,,,,,,,,,,,,,,,,,3.7895791583166334,,,,,,,,,,1,,,,,,,,,,,,,,,526.5616919999993,526.5616919999993,526.5616919999993,526.5616919999993,526.5970763000005,526.8050729000006,526.9146868000007,530.4640364999996,530.4640364999996,530.4640364999996,['8'],[0.6204842000006465],,,,,,,,,,,,,,,,,,,,,,,,,,,,,,,,,,,,,,,,,,,,,,,,,,,,,,,,,,,,,,,,,,,,,,,,200003,A,2022-10-07_17h41.54.941,mfe_b,2022.2.4,239.8558945772221,
csv_files/a_halfV_trialTable_3.csv,img/leftArrow.png,img/rightArrow.png,img/rightArrow.png,8,0,left,"[0, 0]","[0.0385, 0]","[-0.0385, 0]",img/neutralC/CFD-WF-241-210-N.jpg,"[0.035, 0.035]",,,,,,,,,,,,,,,,0,0,0,2,0,5,5,26,,,,,,,,,,,,,,,,,,,3.9839679358717435,,,,,,,,,,1,,,,,,,,,,,,,,,530.4640364999996,530.4640364999996,530.4640364999996,530.4640364999996,530.5045628999997,530.7080406000005,530.8208482999999,534.5578428999997,534.5578428999997,534.5578428999997,['1'],[0.4858908000005613],,,,,,,,,,,,,,,,,,,,,,,,,,,,,,,,,,,,,,,,,,,,,,,,,,,,,,,,,,,,,,,,,,,,,,,,200003,A,2022-10-07_17h41.54.941,mfe_b,2022.2.4,239.8558945772221,
csv_files/a_halfV_trialTable_3.csv,img/rightArrow.png,img/leftArrow.png,img/leftArrow.png,7,0,right,"[0, 0]","[0.0385, 0]","[-0.0385, 0]",img/neutralC/CFD-BM-024-001-N.jpg,"[0.035, 0.035]",,,,,,,,,,,,,,,,0,0,0,2,0,6,6,19,,,,,,,,,,,,,,,,,,,3.5751503006012024,,,,,,,,,,1,,,,,,,,,,,,,,,534.5578428999997,534.5578428999997,534.5578428999997,534.5578428999997,534.5976694000001,534.8007125999993,534.9089005999995,538.2512595000007,538.2512595000007,538.2512595000007,['8'],[0.48116010000012466],,,,,,,,,,,,,,,,,,,,,,,,,,,,,,,,,,,,,,,,,,,,,,,,,,,,,,,,,,,,,,,,,,,,,,,,200003,A,2022-10-07_17h41.54.941,mfe_b,2022.2.4,239.8558945772221,
csv_files/a_halfV_trialTable_3.csv,img/rightArrow.png,img/rightArrow.png,img/rightArrow.png,5,1,right,"[0, 0]","[0.0385, 0]","[-0.0385, 0]",img/neutralC/CFD-WM-228-065-N.jpg,"[0.035, 0.035]",,,,,,,,,,,,,,,,0,0,0,2,0,7,7,10,,,,,,,,,,,,,,,,,,,3.9919839679358717,,,,,,,,,,1,,,,,,,,,,,,,,,538.2512595000007,538.2512595000007,538.2512595000007,538.2512595000007,538.2870507999996,538.4896644,538.6031192999999,542.3500686000007,542.3500686000007,542.3500686000007,['8'],[0.5365244999993593],,,,,,,,,,,,,,,,,,,,,,,,,,,,,,,,,,,,,,,,,,,,,,,,,,,,,,,,,,,,,,,,,,,,,,,,200003,A,2022-10-07_17h41.54.941,mfe_b,2022.2.4,239.8558945772221,
csv_files/a_halfV_trialTable_3.csv,img/rightArrow.png,img/rightArrow.png,img/rightArrow.png,5,1,right,"[0, 0]","[0.0385, 0]","[-0.0385, 0]",img/neutralC/CFD-IF-722-456-N.jpg,"[0.035, 0.035]",,,,,,,,,,,,,,,,0,0,0,2,0,8,8,24,,,,,,,,,,,,,,,,,,,3.8557114228456912,,,,,,,,,,1,,,,,,,,,,,,,,,542.3500686000007,542.3500686000007,542.3500686000007,542.3500686000007,542.3957528999999,542.5993784000002,542.7007477000006,546.3158179999991,546.3158179999991,546.3158179999991,['8'],[0.42353670000011334],,,,,,,,,,,,,,,,,,,,,,,,,,,,,,,,,,,,,,,,,,,,,,,,,,,,,,,,,,,,,,,,,,,,,,,,200003,A,2022-10-07_17h41.54.941,mfe_b,2022.2.4,239.8558945772221,
csv_files/a_halfV_trialTable_3.csv,img/leftArrow.png,img/rightArrow.png,img/rightArrow.png,8,0,left,"[0, 0]","[0.0385, 0]","[-0.0385, 0]",img/neutralC/CFD-LF-240-199-N.jpg,"[0.035, 0.035]",,,,,,,,,,,,,,,,0,0,0,2,0,9,9,3,,,,,,,,,,,,,,,,,,,3.7044088176352705,,,,,,,,,,1,,,,,,,,,,,,,,,546.3158179999991,546.3158179999991,546.3158179999991,546.3158179999991,546.3559659999992,546.5614280999998,546.6666167000003,550.1375296000006,550.1375296000006,550.1375296000006,['1'],[0.48342330000014044],,,,,,,,,,,,,,,,,,,,,,,,,,,,,,,,,,,,,,,,,,,,,,,,,,,,,,,,,,,,,,,,,,,,,,,,200003,A,2022-10-07_17h41.54.941,mfe_b,2022.2.4,239.8558945772221,
csv_files/a_halfV_trialTable_3.csv,img/rightArrow.png,img/leftArrow.png,img/leftArrow.png,7,0,right,"[0, 0]","[0.0385, 0]","[-0.0385, 0]",img/neutralC/CFD-LF-204-133-N.jpg,"[0.035, 0.035]",,,,,,,,,,,,,,,,0,0,0,2,0,10,10,8,,,,,,,,,,,,,,,,,,,3.5400801603206413,,,,,,,,,,1,,,,,,,,,,,,,,,550.1375296000006,550.1375296000006,550.1375296000006,550.1375296000006,550.1731741000003,550.3759425999997,550.487755099999,553.7958775999996,553.7958775999996,553.7958775999996,['8'],[0.30166669999925944],,,,,,,,,,,,,,,,,,,,,,,,,,,,,,,,,,,,,,,,,,,,,,,,,,,,,,,,,,,,,,,,,,,,,,,,200003,A,2022-10-07_17h41.54.941,mfe_b,2022.2.4,239.8558945772221,
csv_files/a_halfV_trialTable_3.csv,img/rightArrow.png,img/rightArrow.png,img/rightArrow.png,5,1,right,"[0, 0]","[0.0385, 0]","[-0.0385, 0]",img/neutralC/CFD-IM-666-372-N.jpg,"[0.035, 0.035]",,,,,,,,,,,,,,,,0,0,0,2,0,11,11,21,,,,,,,,,,,,,,,,,,,3.6132264529058116,,,,,,,,,,1,,,,,,,,,,,,,,,553.7958775999996,553.7958775999996,553.7958775999996,553.7958775999996,553.8317509000008,554.0340467999995,554.1483855999995,557.5409638000001,557.5409638000001,557.5409638000001,['8'],[0.4855916000014986],,,,,,,,,,,,,,,,,,,,,,,,,,,,,,,,,,,,,,,,,,,,,,,,,,,,,,,,,,,,,,,,,,,,,,,,200003,A,2022-10-07_17h41.54.941,mfe_b,2022.2.4,239.8558945772221,
csv_files/a_halfV_trialTable_3.csv,img/rightArrow.png,img/leftArrow.png,img/leftArrow.png,7,0,right,"[0, 0]","[0.0385, 0]","[-0.0385, 0]",img/neutralC/CFD-MF-303-013-N.jpg,"[0.035, 0.035]",,,,,,,,,,,,,,,,0,0,0,2,0,12,12,15,,,,,,,,,,,,,,,,,,,3.590180360721443,,,,,,,,,,1,,,,,,,,,,,,,,,557.5409638000001,557.5409638000001,557.5409638000001,557.5409638000001,557.5631353999997,557.7632778999996,557.8915223999993,561.2336484999996,561.2336484999996,561.2336484999996,['8'],[0.4592141000011907],,,,,,,,,,,,,,,,,,,,,,,,,,,,,,,,,,,,,,,,,,,,,,,,,,,,,,,,,,,,,,,,,,,,,,,,200003,A,2022-10-07_17h41.54.941,mfe_b,2022.2.4,239.8558945772221,
csv_files/a_halfV_trialTable_3.csv,img/leftArrow.png,img/leftArrow.png,img/leftArrow.png,6,1,left,"[0, 0]","[0.0385, 0]","[-0.0385, 0]",img/neutralC/CFD-AM-249-163-N.jpg,"[0.035, 0.035]",,,,,,,,,,,,,,,,0,0,0,2,0,13,13,30,,,,,,,,,,,,,,,,,,,3.760521042084168,,,,,,,,,,1,,,,,,,,,,,,,,,561.2336484999996,561.2336484999996,561.2336484999996,561.2336484999996,561.2852908000004,561.4878420000005,561.584937399999,565.1027111999992,565.1027111999992,565.1027111999992,['1'],[0.6947985999995581],,,,,,,,,,,,,,,,,,,,,,,,,,,,,,,,,,,,,,,,,,,,,,,,,,,,,,,,,,,,,,,,,,,,,,,,200003,A,2022-10-07_17h41.54.941,mfe_b,2022.2.4,239.8558945772221,
csv_files/a_halfV_trialTable_3.csv,img/leftArrow.png,img/leftArrow.png,img/leftArrow.png,6,1,left,"[0, 0]","[0.0385, 0]","[-0.0385, 0]",img/neutralC/CFD-AF-237-223-N.jpg,"[0.035, 0.035]",,,,,,,,,,,,,,,,0,0,0,2,0,14,14,18,,,,,,,,,,,,,,,,,,,3.782565130260521,,,,,,,,,,1,,,,,,,,,,,,,,,565.1027111999992,565.1027111999992,565.1027111999992,565.1027111999992,565.1451039000003,565.3504472000004,565.4561647999999,568.9918744999995,568.9918744999995,568.9918744999995,['1'],[0.5969762000004266],,,,,,,,,,,,,,,,,,,,,,,,,,,,,,,,,,,,,,,,,,,,,,,,,,,,,,,,,,,,,,,,,,,,,,,,200003,A,2022-10-07_17h41.54.941,mfe_b,2022.2.4,239.8558945772221,
csv_files/a_halfV_trialTable_3.csv,img/leftArrow.png,img/leftArrow.png,img/leftArrow.png,6,1,left,"[0, 0]","[0.0385, 0]","[-0.0385, 0]",img/neutralC/CFD-BF-045-003-N.jpg,"[0.035, 0.035]",,,,,,,,,,,,,,,,0,0,0,2,0,15,15,12,,,,,,,,,,,,,,,,,,,3.743486973947896,,,,,,,,,,1,,,,,,,,,,,,,,,568.9918744999995,568.9918744999995,568.9918744999995,568.9918744999995,569.0373486000008,569.2386334000003,569.3443712000008,572.8515984999995,572.8515984999995,572.8515984999995,['1'],[0.5412850000011531],,,,,,,,,,,,,,,,,,,,,,,,,,,,,,,,,,,,,,,,,,,,,,,,,,,,,,,,,,,,,,,,,,,,,,,,200003,A,2022-10-07_17h41.54.941,mfe_b,2022.2.4,239.8558945772221,
csv_files/a_halfV_trialTable_3.csv,img/leftArrow.png,img/rightArrow.png,img/rightArrow.png,8,0,left,"[0, 0]","[0.0385, 0]","[-0.0385, 0]",img/neutralC/CFD-IF-665-015-N.jpg,"[0.035, 0.035]",,,,,,,,,,,,,,,,0,0,0,2,0,16,16,6,,,,,,,,,,,,,,,,,,,3.711422845691383,,,,,,,,,,1,,,,,,,,,,,,,,,572.8515984999995,572.8515984999995,572.8515984999995,572.8515984999995,572.8889390999993,573.0915005000006,573.2020303999998,576.6718583000002,576.6718583000002,576.6718583000002,['1'],[0.6008228999999119],,,,,,,,,,,,,,,,,,,,,,,,,,,,,,,,,,,,,,,,,,,,,,,,,,,,,,,,,,,,,,,,,,,,,,,,200003,A,2022-10-07_17h41.54.941,mfe_b,2022.2.4,239.8558945772221,
csv_files/a_halfV_trialTable_3.csv,img/rightArrow.png,img/leftArrow.png,img/leftArrow.png,7,0,right,"[0, 0]","[0.0385, 0]","[-0.0385, 0]",img/neutralC/CFD-MM-325-002-N.jpg,"[0.035, 0.035]",,,,,,,,,,,,,,,,0,0,0,2,0,17,17,22,,,,,,,,,,,,,,,,,,,3.5721442885771544,,,,,,,,,,1,,,,,,,,,,,,,,,576.6718583000002,576.6718583000002,576.6718583000002,576.6718583000002,576.7179825999992,576.9213610999996,577.0253592000008,580.3542257000008,580.3542257000008,580.3542257000008,['8'],[0.5801559999999881],,,,,,,,,,,,,,,,,,,,,,,,,,,,,,,,,,,,,,,,,,,,,,,,,,,,,,,,,,,,,,,,,,,,,,,,200003,A,2022-10-07_17h41.54.941,mfe_b,2022.2.4,239.8558945772221,
csv_files/a_halfV_trialTable_3.csv,img/leftArrow.png,img/rightArrow.png,img/rightArrow.png,8,0,left,"[0, 0]","[0.0385, 0]","[-0.0385, 0]",img/neutralC/CFD-LF-233-277-N.jpg,"[0.035, 0.035]",,,,,,,,,,,,,,,,0,0,0,2,0,18,18,29,,,,,,,,,,,,,,,,,,,3.7595190380761525,,,,,,,,,,1,,,,,,,,,,,,,,,580.3542257000008,580.3542257000008,580.3542257000008,580.3542257000008,580.3994526000006,580.6036105999992,580.7053938000008,584.2241969000006,584.2241969000006,584.2241969000006,['1'],[0.5107112000005145],,,,,,,,,,,,,,,,,,,,,,,,,,,,,,,,,,,,,,,,,,,,,,,,,,,,,,,,,,,,,,,,,,,,,,,,200003,A,2022-10-07_17h41.54.941,mfe_b,2022.2.4,239.8558945772221,
csv_files/a_halfV_trialTable_3.csv,img/leftArrow.png,img/rightArrow.png,img/rightArrow.png,8,0,left,"[0, 0]","[0.0385, 0]","[-0.0385, 0]",img/neutralC/CFD-BM-212-117-N.jpg,"[0.035, 0.035]",,,,,,,,,,,,,,,,0,0,0,2,0,19,19,11,,,,,,,,,,,,,,,,,,,3.688376753507014,,,,,,,,,,1,,,,,,,,,,,,,,,584.2241969000006,584.2241969000006,584.2241969000006,584.2241969000006,584.2645276999992,584.4685346999995,584.5740141000006,588.0249265000002,588.0249265000002,588.0249265000002,['1'],[0.5753300999986095],,,,,,,,,,,,,,,,,,,,,,,,,,,,,,,,,,,,,,,,,,,,,,,,,,,,,,,,,,,,,,,,,,,,,,,,200003,A,2022-10-07_17h41.54.941,mfe_b,2022.2.4,239.8558945772221,
csv_files/a_halfV_trialTable_3.csv,img/leftArrow.png,img/leftArrow.png,img/leftArrow.png,6,1,left,"[0, 0]","[0.0385, 0]","[-0.0385, 0]",img/neutralC/CFD-BM-219-141-N.jpg,"[0.035, 0.035]",,,,,,,,,,,,,,,,0,0,0,2,0,20,20,0,,,,,,,,,,,,,,,,,,,3.975951903807615,,,,,,,,,,1,,,,,,,,,,,,,,,588.0249265000002,588.0249265000002,588.0249265000002,588.0249265000002,588.0627430000004,588.2662516,588.3767482000003,592.1008892999998,592.1008892999998,592.1008892999998,['1'],[0.6305169000006572],,,,,,,,,,,,,,,,,,,,,,,,,,,,,,,,,,,,,,,,,,,,,,,,,,,,,,,,,,,,,,,,,,,,,,,,200003,A,2022-10-07_17h41.54.941,mfe_b,2022.2.4,239.8558945772221,
csv_files/a_halfV_trialTable_3.csv,img/leftArrow.png,img/rightArrow.png,img/rightArrow.png,8,0,left,"[0, 0]","[0.0385, 0]","[-0.0385, 0]",img/neutralC/CFD-WM-006-002-N.jpg,"[0.035, 0.035]",,,,,,,,,,,,,,,,0,0,0,2,0,21,21,17,,,,,,,,,,,,,,,,,,,3.920841683366733,,,,,,,,,,1,,,,,,,,,,,,,,,592.1008892999998,592.1008892999998,592.1008892999998,592.1008892999998,592.1573804,592.3596849999994,592.4586331999999,596.1444842000001,596.1444842000001,596.1444842000001,['1'],[0.5456523000011657],,,,,,,,,,,,,,,,,,,,,,,,,,,,,,,,,,,,,,,,,,,,,,,,,,,,,,,,,,,,,,,,,,,,,,,,200003,A,2022-10-07_17h41.54.941,mfe_b,2022.2.4,239.8558945772221,
csv_files/a_halfV_trialTable_3.csv,img/rightArrow.png,img/leftArrow.png,img/leftArrow.png,7,0,right,"[0, 0]","[0.0385, 0]","[-0.0385, 0]",img/neutralC/CFD-WM-249-239-N.jpg,"[0.035, 0.035]",,,,,,,,,,,,,,,,0,0,0,2,0,22,22,27,,,,,,,,,,,,,,,,,,,3.5501002004008013,,,,,,,,,,1,,,,,,,,,,,,,,,596.1444842000001,596.1444842000001,596.1444842000001,596.1444842000001,596.1758797999992,596.3758013999995,596.4965541000001,599.7994760000001,599.7994760000001,599.7994760000001,['8'],[0.6829549000012776],,,,,,,,,,,,,,,,,,,,,,,,,,,,,,,,,,,,,,,,,,,,,,,,,,,,,,,,,,,,,,,,,,,,,,,,200003,A,2022-10-07_17h41.54.941,mfe_b,2022.2.4,239.8558945772221,
csv_files/a_halfV_trialTable_3.csv,img/leftArrow.png,img/rightArrow.png,img/rightArrow.png,8,0,left,"[0, 0]","[0.0385, 0]","[-0.0385, 0]",img/neutralC/CFD-AM-236-090-N.jpg,"[0.035, 0.035]",,,,,,,,,,,,,,,,0,0,0,2,0,23,23,31,,,,,,,,,,,,,,,,,,,3.866733466933868,,,,,,,,,,1,,,,,,,,,,,,,,,599.7994760000001,599.7994760000001,599.7994760000001,599.7994760000001,599.8557519999995,600.0564178999994,600.1539974999996,603.775552699999,603.775552699999,603.775552699999,['1'],[0.5242743999988306],,,,,,,,,,,,,,,,,,,,,,,,,,,,,,,,,,,,,,,,,,,,,,,,,,,,,,,,,,,,,,,,,,,,,,,,200003,A,2022-10-07_17h41.54.941,mfe_b,2022.2.4,239.8558945772221,
csv_files/a_halfV_trialTable_3.csv,img/rightArrow.png,img/rightArrow.png,img/rightArrow.png,5,1,right,"[0, 0]","[0.0385, 0]","[-0.0385, 0]",img/neutralC/CFD-WM-217-070-N.jpg,"[0.035, 0.035]",,,,,,,,,,,,,,,,0,0,0,2,0,24,24,25,,,,,,,,,,,,,,,,,,,3.9038076152304613,,,,,,,,,,1,,,,,,,,,,,,,,,603.775552699999,603.775552699999,603.775552699999,603.775552699999,603.8202000000001,604.0236982000006,604.1270774999994,607.7930194,607.7930194,607.7930194,['8'],[0.39258190000145987],,,,,,,,,,,,,,,,,,,,,,,,,,,,,,,,,,,,,,,,,,,,,,,,,,,,,,,,,,,,,,,,,,,,,,,,200003,A,2022-10-07_17h41.54.941,mfe_b,2022.2.4,239.8558945772221,
csv_files/a_halfV_trialTable_3.csv,img/rightArrow.png,img/rightArrow.png,img/rightArrow.png,5,1,right,"[0, 0]","[0.0385, 0]","[-0.0385, 0]",img/neutralC/CFD-AM-208-143-N.jpg,"[0.035, 0.035]",,,,,,,,,,,,,,,,0,0,0,2,0,25,25,1,,,,,,,,,,,,,,,,,,,3.8196392785571143,,,,,,,,,,1,,,,,,,,,,,,,,,607.7930194,607.7930194,607.7930194,607.7930194,607.83374,608.0376204999993,608.1431176000006,611.728803,611.728803,611.728803,['8'],[0.4811974000003829],,,,,,,,,,,,,,,,,,,,,,,,,,,,,,,,,,,,,,,,,,,,,,,,,,,,,,,,,,,,,,,,,,,,,,,,200003,A,2022-10-07_17h41.54.941,mfe_b,2022.2.4,239.8558945772221,
csv_files/a_halfV_trialTable_3.csv,img/leftArrow.png,img/leftArrow.png,img/leftArrow.png,6,1,left,"[0, 0]","[0.0385, 0]","[-0.0385, 0]",img/neutralC/CFD-IM-715-013-N.jpg,"[0.035, 0.035]",,,,,,,,,,,,,,,,0,0,0,2,0,26,26,20,,,,,,,,,,,,,,,,,,,3.823647294589178,,,,,,,,,,1,,,,,,,,,,,,,,,611.728803,611.728803,611.728803,611.728803,611.7652901000001,611.9649871999991,612.0845489999992,615.6686981000003,615.6686981000003,615.6686981000003,['1'],[0.6831684999997378],,,,,,,,,,,,,,,,,,,,,,,,,,,,,,,,,,,,,,,,,,,,,,,,,,,,,,,,,,,,,,,,,,,,,,,,200003,A,2022-10-07_17h41.54.941,mfe_b,2022.2.4,239.8558945772221,
csv_files/a_halfV_trialTable_3.csv,img/leftArrow.png,img/leftArrow.png,img/leftArrow.png,6,1,left,"[0, 0]","[0.0385, 0]","[-0.0385, 0]",img/neutralC/CFD-BM-013-002-N.jpg,"[0.035, 0.035]",,,,,,,,,,,,,,,,0,0,0,2,0,27,27,5,,,,,,,,,,,,,,,,,,,3.75250501002004,,,,,,,,,,1,,,,,,,,,,,,,,,615.6686981000003,615.6686981000003,615.6686981000003,615.6686981000003,615.7050330999991,615.9102880999999,616.0201498999995,619.5279439000005,619.5279439000005,619.5279439000005,['1'],[0.643417799999952],,,,,,,,,,,,,,,,,,,,,,,,,,,,,,,,,,,,,,,,,,,,,,,,,,,,,,,,,,,,,,,,,,,,,,,,200003,A,2022-10-07_17h41.54.941,mfe_b,2022.2.4,239.8558945772221,
csv_files/a_halfV_trialTable_3.csv,img/rightArrow.png,img/rightArrow.png,img/rightArrow.png,5,1,right,"[0, 0]","[0.0385, 0]","[-0.0385, 0]",img/neutralC/CFD-AF-209-006-N.jpg,"[0.035, 0.035]",,,,,,,,,,,,,,,,0,0,0,2,0,28,28,9,,,,,,,,,,,,,,,,,,,3.9789579158316633,,,,,,,,,,1,,,,,,,,,,,,,,,619.5279439000005,619.5279439000005,619.5279439000005,619.5279439000005,619.5733909999999,619.7733231999991,619.8791813000007,623.6276875999993,623.6276875999993,623.6276875999993,['8'],[0.5460720999999467],,,,,,,,,,,,,,,,,,,,,,,,,,,,,,,,,,,,,,,,,,,,,,,,,,,,,,,,,,,,,,,,,,,,,,,,200003,A,2022-10-07_17h41.54.941,mfe_b,2022.2.4,239.8558945772221,
csv_files/a_halfV_trialTable_3.csv,img/rightArrow.png,img/leftArrow.png,img/leftArrow.png,7,0,right,"[0, 0]","[0.0385, 0]","[-0.0385, 0]",img/neutralC/CFD-IF-737-104-N.jpg,"[0.035, 0.035]",,,,,,,,,,,,,,,,0,0,0,2,0,29,29,16,,,,,,,,,,,,,,,,,,,3.8246492985971945,,,,,,,,,,1,,,,,,,,,,,,,,,623.6276875999993,623.6276875999993,623.6276875999993,623.6276875999993,623.6630222999993,623.8625854000002,623.9773626000006,627.5696721000004,627.5696721000004,627.5696721000004,['8'],[0.5025816999987001],,,,,,,,,,,,,,,,,,,,,,,,,,,,,,,,,,,,,,,,,,,,,,,,,,,,,,,,,,,,,,,,,,,,,,,,200003,A,2022-10-07_17h41.54.941,mfe_b,2022.2.4,239.8558945772221,
csv_files/a_halfV_trialTable_3.csv,img/leftArrow.png,img/leftArrow.png,img/leftArrow.png,6,1,left,"[0, 0]","[0.0385, 0]","[-0.0385, 0]",img/neutralC/CFD-IM-630-134-N.jpg,"[0.035, 0.035]",,,,,,,,,,,,,,,,0,0,0,2,0,30,30,13,,,,,,,,,,,,,,,,,,,3.8216432865731464,,,,,,,,,,1,,,,,,,,,,,,,,,627.5696721000004,627.5696721000004,627.5696721000004,627.5696721000004,627.6061840000002,627.8078736000007,627.9219594999995,631.4940824999994,631.4940824999994,631.4940824999994,['1'],[0.5008214999998017],,,,,,,,,,,,,,,,,,,,,,,,,,,,,,,,,,,,,,,,,,,,,,,,,,,,,,,,,,,,,,,,,,,,,,,,200003,A,2022-10-07_17h41.54.941,mfe_b,2022.2.4,239.8558945772221,
csv_files/a_halfV_trialTable_3.csv,img/rightArrow.png,img/leftArrow.png,img/leftArrow.png,7,0,right,"[0, 0]","[0.0385, 0]","[-0.0385, 0]",img/neutralC/CFD-IF-633-012-N.jpg,"[0.035, 0.035]",,,,,,,,,,,,,,,,0,0,0,2,0,31,31,7,,,,,,,,,,,,,,,,,,,3.6733466933867733,,,,,,,,,,1,,,,,,,,,,,,,,,631.4940824999994,631.4940824999994,631.4940824999994,631.4940824999994,631.5441370999997,631.7473477999993,631.8469091999996,635.1874561000004,635.1874561000004,635.1874561000004,['8'],[0.5656240999996953],,,,,,,,,,,,,,,,,,,,,,,,,,,,,,,,,,,,,,,,,,,,,,,,,,,,,,,,,,,,,,,,,,,,,,,,200003,A,2022-10-07_17h41.54.941,mfe_b,2022.2.4,239.8558945772221,
csv_files/a_halfV_trialTable_3.csv,,,,,,,,,,,,,,,,,,,,,,,,,,,0,0,0,2,,,,,,,,,,,,,,,,,,,,,,,,,,,,,,,,,,,,,,,,,,,,,,,,,,,,,,,,,,,,2,635.1874561000004,645.1669772000005,8,0.69085079999968,,,,,,,,,,,,,,,,,,,,,,,,,,,,,,,,,,,,,,,,,,,,,,,,,,,,,,,,,,,,,,,,,,,200003,A,2022-10-07_17h41.54.941,mfe_b,2022.2.4,239.8558945772221,
csv_files/a_halfV_trialTable_9.csv,img/rightArrow.png,img/leftArrow.png,img/leftArrow.png,7,0,right,"[0, 0]","[0.0385, 0]","[-0.0385, 0]",img/neutralC/CFD-IM-685-004-N.jpg,"[0.035, 0.035]",,,,,,,,,,,,,,,,0,1,1,8,0,0,0,20,,,,,,,,,,,,,,,,,,650.2090726999995,3.7064128256513027,,,,,,,,,,1,,,,,,,,,,,645.8707517999992,645.8707517999992,8,4.320754000000306,652.3443088000004,652.3443088000004,652.3443088000004,652.3443088000004,652.3528182999999,652.5551481999992,652.6964907000001,656.1673093999998,656.1673093999998,656.1673093999998,['8'],[0.40698260000135633],,,,,,,,,,,,,,,,,,,,,,,,,,,,,,,,,,,,,,,,,,,,,,,,,,,,,,,,,,,,,,,,,,,,,,,,200003,A,2022-10-07_17h41.54.941,mfe_b,2022.2.4,239.8558945772221,
csv_files/a_halfV_trialTable_9.csv,img/rightArrow.png,img/leftArrow.png,img/leftArrow.png,7,0,right,"[0, 0]","[0.0385, 0]","[-0.0385, 0]",img/neutralC/CFD-WF-242-001-N.jpg,"[0.035, 0.035]",,,,,,,,,,,,,,,,0,1,1,8,0,1,1,13,,,,,,,,,,,,,,,,,,,3.8697394789579156,,,,,,,,,,1,,,,,,,,,,,,,,,656.1673093999998,656.1673093999998,656.1673093999998,656.1673093999998,656.2078022999995,656.4081967999991,656.5163658999991,660.1561560999999,660.1561560999999,660.1561560999999,['8'],[0.4236648000005516],,,,,,,,,,,,,,,,,,,,,,,,,,,,,,,,,,,,,,,,,,,,,,,,,,,,,,,,,,,,,,,,,,,,,,,,200003,A,2022-10-07_17h41.54.941,mfe_b,2022.2.4,239.8558945772221,
csv_files/a_halfV_trialTable_9.csv,img/rightArrow.png,img/leftArrow.png,img/leftArrow.png,7,0,right,"[0, 0]","[0.0385, 0]","[-0.0385, 0]",img/neutralC/CFD-WF-206-147-N.jpg,"[0.035, 0.035]",,,,,,,,,,,,,,,,0,1,1,8,0,2,2,1,,,,,,,,,,,,,,,,,,,3.963927855711423,,,,,,,,,,1,,,,,,,,,,,,,,,660.1561560999999,660.1561560999999,660.1561560999999,660.1561560999999,660.1911827000004,660.4005175000002,660.5088952000006,664.2377450000004,664.2377450000004,664.2377450000004,['8'],[0.5032553000000917],,,,,,,,,,,,,,,,,,,,,,,,,,,,,,,,,,,,,,,,,,,,,,,,,,,,,,,,,,,,,,,,,,,,,,,,200003,A,2022-10-07_17h41.54.941,mfe_b,2022.2.4,239.8558945772221,
csv_files/a_halfV_trialTable_9.csv,img/rightArrow.png,img/rightArrow.png,img/rightArrow.png,5,1,right,"[0, 0]","[0.0385, 0]","[-0.0385, 0]",img/neutralC/CFD-BM-204-003-N.jpg,"[0.035, 0.035]",,,,,,,,,,,,,,,,0,1,1,8,0,3,3,19,,,,,,,,,,,,,,,,,,,3.6492985971943885,,,,,,,,,,1,,,,,,,,,,,,,,,664.2377450000004,664.2377450000004,664.2377450000004,664.2377450000004,664.2759650000007,664.4807462999997,664.5919018000004,668.0033320000002,668.0033320000002,668.0033320000002,['8'],[0.4026279000008799],,,,,,,,,,,,,,,,,,,,,,,,,,,,,,,,,,,,,,,,,,,,,,,,,,,,,,,,,,,,,,,,,,,,,,,,200003,A,2022-10-07_17h41.54.941,mfe_b,2022.2.4,239.8558945772221,
csv_files/a_halfV_trialTable_9.csv,img/leftArrow.png,img/leftArrow.png,img/leftArrow.png,6,1,left,"[0, 0]","[0.0385, 0]","[-0.0385, 0]",img/neutralC/CFD-MM-306-010-N.jpg,"[0.035, 0.035]",,,,,,,,,,,,,,,,0,1,1,8,0,4,4,16,,,,,,,,,,,,,,,,,,,3.633266533066132,,,,,,,,,,1,,,,,,,,,,,,,,,668.0033320000002,668.0033320000002,668.0033320000002,668.0033320000002,668.0469276000003,668.2477275000001,668.3521357999998,671.7416671999999,671.7416671999999,671.7416671999999,['1'],[0.43500049999965995],,,,,,,,,,,,,,,,,,,,,,,,,,,,,,,,,,,,,,,,,,,,,,,,,,,,,,,,,,,,,,,,,,,,,,,,200003,A,2022-10-07_17h41.54.941,mfe_b,2022.2.4,239.8558945772221,
csv_files/a_halfV_trialTable_9.csv,img/leftArrow.png,img/leftArrow.png,img/leftArrow.png,6,1,left,"[0, 0]","[0.0385, 0]","[-0.0385, 0]",img/neutralC/CFD-LM-252-076-N.jpg,"[0.035, 0.035]",,,,,,,,,,,,,,,,0,1,1,8,0,5,5,12,,,,,,,,,,,,,,,,,,,3.920841683366733,,,,,,,,,,1,,,,,,,,,,,,,,,671.7416671999999,671.7416671999999,671.7416671999999,671.7416671999999,671.7923162999996,671.9961361999995,672.0920356000006,675.7831036000007,675.7831036000007,675.7831036000007,['1'],[0.3976732000010088],,,,,,,,,,,,,,,,,,,,,,,,,,,,,,,,,,,,,,,,,,,,,,,,,,,,,,,,,,,,,,,,,,,,,,,,200003,A,2022-10-07_17h41.54.941,mfe_b,2022.2.4,239.8558945772221,
csv_files/a_halfV_trialTable_9.csv,img/leftArrow.png,img/rightArrow.png,img/rightArrow.png,8,0,left,"[0, 0]","[0.0385, 0]","[-0.0385, 0]",img/neutralC/CFD-IM-671-601-N.jpg,"[0.035, 0.035]",,,,,,,,,,,,,,,,0,1,1,8,0,6,6,31,,,,,,,,,,,,,,,,,,,3.509018036072144,,,,,,,,,,0,,,,,,,,,,,,,,,675.7831036000007,675.7831036000007,675.7831036000007,675.7831036000007,675.8181554999992,676.0212135999991,676.1325132000002,679.4090071999999,679.4090071999999,679.4090071999999,"['8', '1']","[0.4078155000006518, 0.5670695000007981]",,,,,,,,,,,,,,,,,,,,,,,,,,,,,,,,,,,,,,,,,,,,,,,,,,,,,,,,,,,,,,,,,,,,,,,,200003,A,2022-10-07_17h41.54.941,mfe_b,2022.2.4,239.8558945772221,
csv_files/a_halfV_trialTable_9.csv,img/leftArrow.png,img/rightArrow.png,img/rightArrow.png,8,0,left,"[0, 0]","[0.0385, 0]","[-0.0385, 0]",img/neutralC/CFD-MM-317-061-N.jpg,"[0.035, 0.035]",,,,,,,,,,,,,,,,0,1,1,8,0,7,7,29,,,,,,,,,,,,,,,,,,,3.5430861723446894,,,,,,,,,,1,,,,,,,,,,,,,,,679.4090071999999,679.4090071999999,679.4090071999999,679.4090071999999,679.4452622999997,679.6473358999992,679.7628705999996,683.0654259000003,683.0654259000003,683.0654259000003,['1'],[0.527421000000686],,,,,,,,,,,,,,,,,,,,,,,,,,,,,,,,,,,,,,,,,,,,,,,,,,,,,,,,,,,,,,,,,,,,,,,,200003,A,2022-10-07_17h41.54.941,mfe_b,2022.2.4,239.8558945772221,
csv_files/a_halfV_trialTable_9.csv,img/leftArrow.png,img/rightArrow.png,img/rightArrow.png,8,0,left,"[0, 0]","[0.0385, 0]","[-0.0385, 0]",img/neutralC/CFD-MF-351-017-N.jpg,"[0.035, 0.035]",,,,,,,,,,,,,,,,0,1,1,8,0,8,8,18,,,,,,,,,,,,,,,,,,,3.9789579158316633,,,,,,,,,,1,,,,,,,,,,,,,,,683.0654259000003,683.0654259000003,683.0654259000003,683.0654259000003,683.1062612000005,683.3056613000008,683.4159161999996,687.1641746000005,687.1641746000005,687.1641746000005,['1'],[0.5549997999987681],,,,,,,,,,,,,,,,,,,,,,,,,,,,,,,,,,,,,,,,,,,,,,,,,,,,,,,,,,,,,,,,,,,,,,,,200003,A,2022-10-07_17h41.54.941,mfe_b,2022.2.4,239.8558945772221,
csv_files/a_halfV_trialTable_9.csv,img/leftArrow.png,img/leftArrow.png,img/leftArrow.png,6,1,left,"[0, 0]","[0.0385, 0]","[-0.0385, 0]",img/neutralC/CFD-LF-215-157-N.jpg,"[0.035, 0.035]",,,,,,,,,,,,,,,,0,1,1,8,0,9,9,10,,,,,,,,,,,,,,,,,,,3.7635270541082164,,,,,,,,,,1,,,,,,,,,,,,,,,687.1641746000005,687.1641746000005,687.1641746000005,687.1641746000005,687.1962222000002,687.4004009,687.5182788000002,691.0447612999997,691.0447612999997,691.0447612999997,['1'],[0.4511037000011129],,,,,,,,,,,,,,,,,,,,,,,,,,,,,,,,,,,,,,,,,,,,,,,,,,,,,,,,,,,,,,,,,,,,,,,,200003,A,2022-10-07_17h41.54.941,mfe_b,2022.2.4,239.8558945772221,
csv_files/a_halfV_trialTable_9.csv,img/rightArrow.png,img/leftArrow.png,img/leftArrow.png,7,0,right,"[0, 0]","[0.0385, 0]","[-0.0385, 0]",img/neutralC/CFD-IM-648-337-N.jpg,"[0.035, 0.035]",,,,,,,,,,,,,,,,0,1,1,8,0,10,10,9,,,,,,,,,,,,,,,,,,,3.7945891783567136,,,,,,,,,,1,,,,,,,,,,,,,,,691.0447612999997,691.0447612999997,691.0447612999997,691.0447612999997,691.0845812999996,691.2845049000007,691.3950031999993,694.9544177000007,694.9544177000007,694.9544177000007,['8'],[0.6028538000009576],,,,,,,,,,,,,,,,,,,,,,,,,,,,,,,,,,,,,,,,,,,,,,,,,,,,,,,,,,,,,,,,,,,,,,,,200003,A,2022-10-07_17h41.54.941,mfe_b,2022.2.4,239.8558945772221,
csv_files/a_halfV_trialTable_9.csv,img/rightArrow.png,img/rightArrow.png,img/rightArrow.png,5,1,right,"[0, 0]","[0.0385, 0]","[-0.0385, 0]",img/neutralC/CFD-WM-031-003-N.jpg,"[0.035, 0.035]",,,,,,,,,,,,,,,,0,1,1,8,0,11,11,4,,,,,,,,,,,,,,,,,,,3.8777555110220443,,,,,,,,,,1,,,,,,,,,,,,,,,694.9544177000007,694.9544177000007,694.9544177000007,694.9544177000007,694.9953425000003,695.1960342999992,695.3047169000001,698.9549853000008,698.9549853000008,698.9549853000008,['8'],[0.5398802000017895],,,,,,,,,,,,,,,,,,,,,,,,,,,,,,,,,,,,,,,,,,,,,,,,,,,,,,,,,,,,,,,,,,,,,,,,200003,A,2022-10-07_17h41.54.941,mfe_b,2022.2.4,239.8558945772221,
csv_files/a_halfV_trialTable_9.csv,img/rightArrow.png,img/leftArrow.png,img/leftArrow.png,7,0,right,"[0, 0]","[0.0385, 0]","[-0.0385, 0]",img/neutralC/CFD-WM-229-129-N.jpg,"[0.035, 0.035]",,,,,,,,,,,,,,,,0,1,1,8,0,12,12,7,,,,,,,,,,,,,,,,,,,3.841683366733467,,,,,,,,,,1,,,,,,,,,,,,,,,698.9549853000008,698.9549853000008,698.9549853000008,698.9549853000008,698.9867713999993,699.1906779000001,699.3064121999996,702.9093455000002,702.9093455000002,702.9093455000002,['8'],[0.5273170999989816],,,,,,,,,,,,,,,,,,,,,,,,,,,,,,,,,,,,,,,,,,,,,,,,,,,,,,,,,,,,,,,,,,,,,,,,200003,A,2022-10-07_17h41.54.941,mfe_b,2022.2.4,239.8558945772221,
csv_files/a_halfV_trialTable_9.csv,img/rightArrow.png,img/rightArrow.png,img/rightArrow.png,5,1,right,"[0, 0]","[0.0385, 0]","[-0.0385, 0]",img/neutralC/CFD-LM-247-095-N.jpg,"[0.035, 0.035]",,,,,,,,,,,,,,,,0,1,1,8,0,13,13,22,,,,,,,,,,,,,,,,,,,3.6693386773547094,,,,,,,,,,1,,,,,,,,,,,,,,,702.9093455000002,702.9093455000002,702.9093455000002,702.9093455000002,702.9500803999999,703.1517475,703.2612375999997,706.7001798999991,706.7001798999991,706.7001798999991,['8'],[0.45979630000147154],,,,,,,,,,,,,,,,,,,,,,,,,,,,,,,,,,,,,,,,,,,,,,,,,,,,,,,,,,,,,,,,,,,,,,,,200003,A,2022-10-07_17h41.54.941,mfe_b,2022.2.4,239.8558945772221,
csv_files/a_halfV_trialTable_9.csv,img/leftArrow.png,img/leftArrow.png,img/leftArrow.png,6,1,left,"[0, 0]","[0.0385, 0]","[-0.0385, 0]",img/neutralC/CFD-WF-015-006-N.jpg,"[0.035, 0.035]",,,,,,,,,,,,,,,,0,1,1,8,0,14,14,0,,,,,,,,,,,,,,,,,,,3.898797595190381,,,,,,,,,,1,,,,,,,,,,,,,,,706.7001798999991,706.7001798999991,706.7001798999991,706.7001798999991,706.7329456999996,706.9362142999998,707.0492512000001,710.7154427000005,710.7154427000005,710.7154427000005,['1'],[0.4484176000005391],,,,,,,,,,,,,,,,,,,,,,,,,,,,,,,,,,,,,,,,,,,,,,,,,,,,,,,,,,,,,,,,,,,,,,,,200003,A,2022-10-07_17h41.54.941,mfe_b,2022.2.4,239.8558945772221,
csv_files/a_halfV_trialTable_9.csv,img/leftArrow.png,img/rightArrow.png,img/rightArrow.png,8,0,left,"[0, 0]","[0.0385, 0]","[-0.0385, 0]",img/neutralC/CFD-BF-043-003-N.jpg,"[0.035, 0.035]",,,,,,,,,,,,,,,,0,1,1,8,0,15,15,24,,,,,,,,,,,,,,,,,,,3.748496993987976,,,,,,,,,,1,,,,,,,,,,,,,,,710.7154427000005,710.7154427000005,710.7154427000005,710.7154427000005,710.7515390000008,710.9526485999995,711.0667412000003,714.5776045000002,714.5776045000002,714.5776045000002,['1'],[0.5092180000010558],,,,,,,,,,,,,,,,,,,,,,,,,,,,,,,,,,,,,,,,,,,,,,,,,,,,,,,,,,,,,,,,,,,,,,,,200003,A,2022-10-07_17h41.54.941,mfe_b,2022.2.4,239.8558945772221,
csv_files/a_halfV_trialTable_9.csv,img/leftArrow.png,img/rightArrow.png,img/rightArrow.png,8,0,left,"[0, 0]","[0.0385, 0]","[-0.0385, 0]",img/neutralC/CFD-BF-217-189-N.jpg,"[0.035, 0.035]",,,,,,,,,,,,,,,,0,1,1,8,0,16,16,14,,,,,,,,,,,,,,,,,,,3.7034068136272547,,,,,,,,,,1,,,,,,,,,,,,,,,714.5776045000002,714.5776045000002,714.5776045000002,714.5776045000002,714.6189398999995,714.8205195999999,714.9265782000002,718.3963248,718.3963248,718.3963248,['1'],[0.6679467000012664],,,,,,,,,,,,,,,,,,,,,,,,,,,,,,,,,,,,,,,,,,,,,,,,,,,,,,,,,,,,,,,,,,,,,,,,200003,A,2022-10-07_17h41.54.941,mfe_b,2022.2.4,239.8558945772221,
csv_files/a_halfV_trialTable_9.csv,img/rightArrow.png,img/leftArrow.png,img/leftArrow.png,7,0,right,"[0, 0]","[0.0385, 0]","[-0.0385, 0]",img/neutralC/CFD-AM-250-149-N.jpg,"[0.035, 0.035]",,,,,,,,,,,,,,,,0,1,1,8,0,17,17,27,,,,,,,,,,,,,,,,,,,3.8907815631262523,,,,,,,,,,1,,,,,,,,,,,,,,,718.3963248,718.3963248,718.3963248,718.3963248,718.4371780999991,718.6421885,718.7494384999991,722.4036018999996,722.4036018999996,722.4036018999996,['8'],[0.539161000000604],,,,,,,,,,,,,,,,,,,,,,,,,,,,,,,,,,,,,,,,,,,,,,,,,,,,,,,,,,,,,,,,,,,,,,,,200003,A,2022-10-07_17h41.54.941,mfe_b,2022.2.4,239.8558945772221,
csv_files/a_halfV_trialTable_9.csv,img/leftArrow.png,img/leftArrow.png,img/leftArrow.png,6,1,left,"[0, 0]","[0.0385, 0]","[-0.0385, 0]",img/neutralC/CFD-BF-002-001-N.jpg,"[0.035, 0.035]",,,,,,,,,,,,,,,,0,1,1,8,0,18,18,26,,,,,,,,,,,,,,,,,,,3.6302605210420844,,,,,,,,,,1,,,,,,,,,,,,,,,722.4036018999996,722.4036018999996,722.4036018999996,722.4036018999996,722.4387437000005,722.641625799999,722.7532329000005,726.1493857999994,726.1493857999994,726.1493857999994,['1'],[0.911315100000138],,,,,,,,,,,,,,,,,,,,,,,,,,,,,,,,,,,,,,,,,,,,,,,,,,,,,,,,,,,,,,,,,,,,,,,,200003,A,2022-10-07_17h41.54.941,mfe_b,2022.2.4,239.8558945772221,
csv_files/a_halfV_trialTable_9.csv,img/rightArrow.png,img/rightArrow.png,img/rightArrow.png,5,1,right,"[0, 0]","[0.0385, 0]","[-0.0385, 0]",img/neutralC/CFD-WM-242-011-N.jpg,"[0.035, 0.035]",,,,,,,,,,,,,,,,0,1,1,8,0,19,19,11,,,,,,,,,,,,,,,,,,,3.9539078156312626,,,,,,,,,,1,,,,,,,,,,,,,,,726.1493857999994,726.1493857999994,726.1493857999994,726.1493857999994,726.1862658999999,726.388465,726.5024814000008,730.2134406000005,730.2134406000005,730.2134406000005,['8'],[0.48582399999941117],,,,,,,,,,,,,,,,,,,,,,,,,,,,,,,,,,,,,,,,,,,,,,,,,,,,,,,,,,,,,,,,,,,,,,,,200003,A,2022-10-07_17h41.54.941,mfe_b,2022.2.4,239.8558945772221,
csv_files/a_halfV_trialTable_9.csv,img/rightArrow.png,img/rightArrow.png,img/rightArrow.png,5,1,right,"[0, 0]","[0.0385, 0]","[-0.0385, 0]",img/neutralC/CFD-BM-045-004-N.jpg,"[0.035, 0.035]",,,,,,,,,,,,,,,,0,1,1,8,0,20,20,2,,,,,,,,,,,,,,,,,,,3.7224448897795592,,,,,,,,,,1,,,,,,,,,,,,,,,730.2134406000005,730.2134406000005,730.2134406000005,730.2134406000005,730.2598402000003,730.4628458999996,730.5637105999995,734.0432848,734.0432848,734.0432848,['8'],[0.4338910999995278],,,,,,,,,,,,,,,,,,,,,,,,,,,,,,,,,,,,,,,,,,,,,,,,,,,,,,,,,,,,,,,,,,,,,,,,200003,A,2022-10-07_17h41.54.941,mfe_b,2022.2.4,239.8558945772221,
csv_files/a_halfV_trialTable_9.csv,img/rightArrow.png,img/leftArrow.png,img/leftArrow.png,7,0,right,"[0, 0]","[0.0385, 0]","[-0.0385, 0]",img/neutralC/CFD-WM-029-023-N.jpg,"[0.035, 0.035]",,,,,,,,,,,,,,,,0,1,1,8,0,21,21,30,,,,,,,,,,,,,,,,,,,3.817635270541082,,,,,,,,,,1,,,,,,,,,,,,,,,734.0432848,734.0432848,734.0432848,734.0432848,734.0891828000003,734.2924327000001,734.3966717000003,737.9787923000004,737.9787923000004,737.9787923000004,None,,,,,,,,,,,,,,,,,,,,,,,,,,,,,,,,,,,,,,,,,,,,,,,,,,,,,,,,,,,,,,,,,,,,,,,,,200003,A,2022-10-07_17h41.54.941,mfe_b,2022.2.4,239.8558945772221,
csv_files/a_halfV_trialTable_9.csv,img/leftArrow.png,img/rightArrow.png,img/rightArrow.png,8,0,left,"[0, 0]","[0.0385, 0]","[-0.0385, 0]",img/neutralC/CFD-BF-245-178-N.jpg,"[0.035, 0.035]",,,,,,,,,,,,,,,,0,1,1,8,0,22,22,15,,,,,,,,,,,,,,,,,,,3.590180360721443,,,,,,,,,,0,,,,,,,,,,,,,,,737.9787923000004,737.9787923000004,737.9787923000004,737.9787923000004,738.0145905999998,738.2164477000006,738.3279547999991,741.6812841999999,741.6812841999999,741.6812841999999,['8'],[1.7221172000008664],,,,,,,,,,,,,,,,,,,,,,,,,,,,,,,,,,,,,,,,,,,,,,,,,,,,,,,,,,,,,,,,,,,,,,,,200003,A,2022-10-07_17h41.54.941,mfe_b,2022.2.4,239.8558945772221,
csv_files/a_halfV_trialTable_9.csv,img/rightArrow.png,img/rightArrow.png,img/rightArrow.png,5,1,right,"[0, 0]","[0.0385, 0]","[-0.0385, 0]",img/neutralC/CFD-AM-226-234-N.jpg,"[0.035, 0.035]",,,,,,,,,,,,,,,,0,1,1,8,0,23,23,21,,,,,,,,,,,,,,,,,,,3.5330661322645294,,,,,,,,,,1,,,,,,,,,,,,,,,741.6812841999999,741.6812841999999,741.6812841999999,741.6812841999999,741.7207046999993,741.9219106,742.0316000999992,745.3341775999997,745.3341775999997,745.3341775999997,['8'],[0.5066204000013386],,,,,,,,,,,,,,,,,,,,,,,,,,,,,,,,,,,,,,,,,,,,,,,,,,,,,,,,,,,,,,,,,,,,,,,,200003,A,2022-10-07_17h41.54.941,mfe_b,2022.2.4,239.8558945772221,
csv_files/a_halfV_trialTable_9.csv,img/leftArrow.png,img/rightArrow.png,img/rightArrow.png,8,0,left,"[0, 0]","[0.0385, 0]","[-0.0385, 0]",img/neutralC/CFD-MM-322-002-N.jpg,"[0.035, 0.035]",,,,,,,,,,,,,,,,0,1,1,8,0,24,24,5,,,,,,,,,,,,,,,,,,,3.8476953907815634,,,,,,,,,,1,,,,,,,,,,,,,,,745.3341775999997,745.3341775999997,745.3341775999997,745.3341775999997,745.3694142000004,745.5730210000002,745.6837298999999,749.2977074999999,749.2977074999999,749.2977074999999,['1'],[0.4274346999991394],,,,,,,,,,,,,,,,,,,,,,,,,,,,,,,,,,,,,,,,,,,,,,,,,,,,,,,,,,,,,,,,,,,,,,,,200003,A,2022-10-07_17h41.54.941,mfe_b,2022.2.4,239.8558945772221,
csv_files/a_halfV_trialTable_9.csv,img/leftArrow.png,img/leftArrow.png,img/leftArrow.png,6,1,left,"[0, 0]","[0.0385, 0]","[-0.0385, 0]",img/neutralC/CFD-WF-250-167-N.jpg,"[0.035, 0.035]",,,,,,,,,,,,,,,,0,1,1,8,0,25,25,23,,,,,,,,,,,,,,,,,,,3.906813627254509,,,,,,,,,,1,,,,,,,,,,,,,,,749.2977074999999,749.2977074999999,749.2977074999999,749.2977074999999,749.3347675000005,749.5380344999994,749.650001,753.3140934999992,753.3140934999992,753.3140934999992,['1'],[0.5419443999999203],,,,,,,,,,,,,,,,,,,,,,,,,,,,,,,,,,,,,,,,,,,,,,,,,,,,,,,,,,,,,,,,,,,,,,,,200003,A,2022-10-07_17h41.54.941,mfe_b,2022.2.4,239.8558945772221,
csv_files/a_halfV_trialTable_9.csv,img/leftArrow.png,img/rightArrow.png,img/rightArrow.png,8,0,left,"[0, 0]","[0.0385, 0]","[-0.0385, 0]",img/neutralC/CFD-AM-234-355-N.jpg,"[0.035, 0.035]",,,,,,,,,,,,,,,,0,1,1,8,0,26,26,3,,,,,,,,,,,,,,,,,,,3.779559118236473,,,,,,,,,,1,,,,,,,,,,,,,,,753.3140934999992,753.3140934999992,753.3140934999992,753.3140934999992,753.3629521999992,753.5655719000006,753.6676817000007,757.1924063999995,757.1924063999995,757.1924063999995,['1'],[0.5230446000005031],,,,,,,,,,,,,,,,,,,,,,,,,,,,,,,,,,,,,,,,,,,,,,,,,,,,,,,,,,,,,,,,,,,,,,,,200003,A,2022-10-07_17h41.54.941,mfe_b,2022.2.4,239.8558945772221,
csv_files/a_halfV_trialTable_9.csv,img/rightArrow.png,img/rightArrow.png,img/rightArrow.png,5,1,right,"[0, 0]","[0.0385, 0]","[-0.0385, 0]",img/neutralC/CFD-BM-031-003-N.jpg,"[0.035, 0.035]",,,,,,,,,,,,,,,,0,1,1,8,0,27,27,28,,,,,,,,,,,,,,,,,,,3.853707414829659,,,,,,,,,,1,,,,,,,,,,,,,,,757.1924063999995,757.1924063999995,757.1924063999995,757.1924063999995,757.2433896999992,757.4470767999992,757.5419328000007,761.162214,761.162214,761.162214,['8'],[0.43609460000152467],,,,,,,,,,,,,,,,,,,,,,,,,,,,,,,,,,,,,,,,,,,,,,,,,,,,,,,,,,,,,,,,,,,,,,,,200003,A,2022-10-07_17h41.54.941,mfe_b,2022.2.4,239.8558945772221,
csv_files/a_halfV_trialTable_9.csv,img/leftArrow.png,img/leftArrow.png,img/leftArrow.png,6,1,left,"[0, 0]","[0.0385, 0]","[-0.0385, 0]",img/neutralC/CFD-MF-346-008-N.jpg,"[0.035, 0.035]",,,,,,,,,,,,,,,,0,1,1,8,0,28,28,17,,,,,,,,,,,,,,,,,,,3.853707414829659,,,,,,,,,,1,,,,,,,,,,,,,,,761.162214,761.162214,761.162214,761.162214,761.1980786999993,761.3993697999995,761.5210896999997,765.1321095000003,765.1321095000003,765.1321095000003,['1'],[1.1731964999999036],,,,,,,,,,,,,,,,,,,,,,,,,,,,,,,,,,,,,,,,,,,,,,,,,,,,,,,,,,,,,,,,,,,,,,,,200003,A,2022-10-07_17h41.54.941,mfe_b,2022.2.4,239.8558945772221,
csv_files/a_halfV_trialTable_9.csv,img/rightArrow.png,img/rightArrow.png,img/rightArrow.png,5,1,right,"[0, 0]","[0.0385, 0]","[-0.0385, 0]",img/neutralC/CFD-AF-234-208-N.jpg,"[0.035, 0.035]",,,,,,,,,,,,,,,,0,1,1,8,0,29,29,8,,,,,,,,,,,,,,,,,,,3.715430861723447,,,,,,,,,,1,,,,,,,,,,,,,,,765.1321095000003,765.1321095000003,765.1321095000003,765.1321095000003,765.1742646999992,765.3754738999996,765.4855332000006,768.9593982000006,768.9593982000006,768.9593982000006,['8'],[0.5084695000005013],,,,,,,,,,,,,,,,,,,,,,,,,,,,,,,,,,,,,,,,,,,,,,,,,,,,,,,,,,,,,,,,,,,,,,,,200003,A,2022-10-07_17h41.54.941,mfe_b,2022.2.4,239.8558945772221,
csv_files/a_halfV_trialTable_9.csv,img/leftArrow.png,img/leftArrow.png,img/leftArrow.png,6,1,left,"[0, 0]","[0.0385, 0]","[-0.0385, 0]",img/neutralC/CFD-AF-241-141-N.jpg,"[0.035, 0.035]",,,,,,,,,,,,,,,,0,1,1,8,0,30,30,25,,,,,,,,,,,,,,,,,,,3.9619238476953904,,,,,,,,,,1,,,,,,,,,,,,,,,768.9593982000006,768.9593982000006,768.9593982000006,768.9593982000006,769.004094599999,769.2075242999999,769.3145440999997,773.0228229000004,773.0228229000004,773.0228229000004,['1'],[0.41730830000051355],,,,,,,,,,,,,,,,,,,,,,,,,,,,,,,,,,,,,,,,,,,,,,,,,,,,,,,,,,,,,,,,,,,,,,,,200003,A,2022-10-07_17h41.54.941,mfe_b,2022.2.4,239.8558945772221,
csv_files/a_halfV_trialTable_9.csv,img/rightArrow.png,img/leftArrow.png,img/leftArrow.png,7,0,right,"[0, 0]","[0.0385, 0]","[-0.0385, 0]",img/neutralC/CFD-MM-323-053-N.jpg,"[0.035, 0.035]",,,,,,,,,,,,,,,,0,1,1,8,0,31,31,6,,,,,,,,,,,,,,,,,,,3.7224448897795592,,,,,,,,,,0,,,,,,,,,,,,,,,773.0228229000004,773.0228229000004,773.0228229000004,773.0228229000004,773.0780216999992,773.2846723000002,773.3761524999991,776.7502287000007,776.7502287000007,776.7502287000007,['1'],[1.1016734000004362],,,,,,,,,,,,,,,,,,,,,,,,,,,,,,,,,,,,,,,,,,,,,,,,,,,,,,,,,,,,,,,,,,,,,,,,200003,A,2022-10-07_17h41.54.941,mfe_b,2022.2.4,239.8558945772221,
csv_files/a_halfV_trialTable_9.csv,,,,,,,,,,,,,,,,,,,,,,,,,,,0,1,1,8,,,,,,,,,,,,,,,,,,,,,,,,,,,,,,,,,,,,,,,,,,,,,,,,,,,,,,,,,,,,1,776.7502287000007,786.7426761999996,8,0.9057939000012993,,,,,,,,,,,,,,,,,,,,,,,,,,,,,,,,,,,,,,,,,,,,,,,,,,,,,,,,,,,,,,,,,,,200003,A,2022-10-07_17h41.54.941,mfe_b,2022.2.4,239.8558945772221,
csv_files/a_halfV_trialTable_11.csv,img/rightArrow.png,img/rightArrow.png,img/rightArrow.png,5,1,right,"[0, 0]","[0.0385, 0]","[-0.0385, 0]",img/neutralC/CFD-IF-660-464-N.jpg,"[0.035, 0.035]",,,,,,,,,,,,,,,,0,2,2,10,0,0,0,25,,,,,,,,,,,,,,,,,,792.2236061000003,3.5080160320641283,,,,,,,,,,1,,,,,,,,,,,787.6582331999998,787.6582331999998,8,4.535759000000326,794.3491766999996,794.3491766999996,794.3491766999996,794.3491766999996,794.3573319000006,794.5585444999997,794.7003901000007,797.9715500999991,797.9715500999991,797.9715500999991,['8'],[0.4289422999991075],,,,,,,,,,,,,,,,,,,,,,,,,,,,,,,,,,,,,,,,,,,,,,,,,,,,,,,,,,,,,,,,,,,,,,,,200003,A,2022-10-07_17h41.54.941,mfe_b,2022.2.4,239.8558945772221,
csv_files/a_halfV_trialTable_11.csv,img/leftArrow.png,img/leftArrow.png,img/leftArrow.png,6,1,left,"[0, 0]","[0.0385, 0]","[-0.0385, 0]",img/neutralC/CFD-BM-205-001-N.jpg,"[0.035, 0.035]",,,,,,,,,,,,,,,,0,2,2,10,0,1,1,31,,,,,,,,,,,,,,,,,,,3.5010020040080163,,,,,,,,,,1,,,,,,,,,,,,,,,797.9715500999991,797.9715500999991,797.9715500999991,797.9715500999991,798.0116010999991,798.2128592000008,798.3229701,801.5845570999991,801.5845570999991,801.5845570999991,['1'],[0.481454599999779],,,,,,,,,,,,,,,,,,,,,,,,,,,,,,,,,,,,,,,,,,,,,,,,,,,,,,,,,,,,,,,,,,,,,,,,200003,A,2022-10-07_17h41.54.941,mfe_b,2022.2.4,239.8558945772221,
csv_files/a_halfV_trialTable_11.csv,img/rightArrow.png,img/rightArrow.png,img/rightArrow.png,5,1,right,"[0, 0]","[0.0385, 0]","[-0.0385, 0]",img/neutralC/CFD-WM-010-001-N.jpg,"[0.035, 0.035]",,,,,,,,,,,,,,,,0,2,2,10,0,2,2,8,,,,,,,,,,,,,,,,,,,3.7404809619238475,,,,,,,,,,1,,,,,,,,,,,,,,,801.5845570999991,801.5845570999991,801.5845570999991,801.5845570999991,801.6244435000008,801.8275004000006,801.9360956,805.4383027000003,805.4383027000003,805.4383027000003,['8'],[0.5394679000019096],,,,,,,,,,,,,,,,,,,,,,,,,,,,,,,,,,,,,,,,,,,,,,,,,,,,,,,,,,,,,,,,,,,,,,,,200003,A,2022-10-07_17h41.54.941,mfe_b,2022.2.4,239.8558945772221,
csv_files/a_halfV_trialTable_11.csv,img/rightArrow.png,img/rightArrow.png,img/rightArrow.png,5,1,right,"[0, 0]","[0.0385, 0]","[-0.0385, 0]",img/neutralC/CFD-IF-718-001-N.jpg,"[0.035, 0.035]",,,,,,,,,,,,,,,,0,2,2,10,0,3,3,15,,,,,,,,,,,,,,,,,,,3.743486973947896,,,,,,,,,,1,,,,,,,,,,,,,,,805.4383027000003,805.4383027000003,805.4383027000003,805.4383027000003,805.4743947999996,805.6752254999992,805.7892790999995,809.2987606000006,809.2987606000006,809.2987606000006,['8'],[0.4218733000016073],,,,,,,,,,,,,,,,,,,,,,,,,,,,,,,,,,,,,,,,,,,,,,,,,,,,,,,,,,,,,,,,,,,,,,,,200003,A,2022-10-07_17h41.54.941,mfe_b,2022.2.4,239.8558945772221,
csv_files/a_halfV_trialTable_11.csv,img/rightArrow.png,img/rightArrow.png,img/rightArrow.png,5,1,right,"[0, 0]","[0.0385, 0]","[-0.0385, 0]",img/neutralC/CFD-WF-019-005-N.jpg,"[0.035, 0.035]",,,,,,,,,,,,,,,,0,2,2,10,0,4,4,28,,,,,,,,,,,,,,,,,,,3.6152304609218437,,,,,,,,,,1,,,,,,,,,,,,,,,809.2987606000006,809.2987606000006,809.2987606000006,809.2987606000006,809.3358279999993,809.5362239999995,809.6507715000007,813.0228956999999,813.0228956999999,813.0228956999999,['8'],[0.4923640000015439],,,,,,,,,,,,,,,,,,,,,,,,,,,,,,,,,,,,,,,,,,,,,,,,,,,,,,,,,,,,,,,,,,,,,,,,200003,A,2022-10-07_17h41.54.941,mfe_b,2022.2.4,239.8558945772221,
csv_files/a_halfV_trialTable_11.csv,img/leftArrow.png,img/leftArrow.png,img/leftArrow.png,6,1,left,"[0, 0]","[0.0385, 0]","[-0.0385, 0]",img/neutralC/CFD-BF-226-119-N.jpg,"[0.035, 0.035]",,,,,,,,,,,,,,,,0,2,2,10,0,5,5,9,,,,,,,,,,,,,,,,,,,3.7575150300601203,,,,,,,,,,1,,,,,,,,,,,,,,,813.0228956999999,813.0228956999999,813.0228956999999,813.0228956999999,813.0796635000006,813.2835078000007,813.3744463999992,816.8841276999992,816.8841276999992,816.8841276999992,['1'],[0.4096441000001505],,,,,,,,,,,,,,,,,,,,,,,,,,,,,,,,,,,,,,,,,,,,,,,,,,,,,,,,,,,,,,,,,,,,,,,,200003,A,2022-10-07_17h41.54.941,mfe_b,2022.2.4,239.8558945772221,
csv_files/a_halfV_trialTable_11.csv,img/leftArrow.png,img/rightArrow.png,img/rightArrow.png,8,0,left,"[0, 0]","[0.0385, 0]","[-0.0385, 0]",img/neutralC/CFD-AM-215-120-N.jpg,"[0.035, 0.035]",,,,,,,,,,,,,,,,0,2,2,10,0,6,6,20,,,,,,,,,,,,,,,,,,,3.8777555110220443,,,,,,,,,,1,,,,,,,,,,,,,,,816.8841276999992,816.8841276999992,816.8841276999992,816.8841276999992,816.9342658000005,817.1360743000005,817.2371077999996,820.8809036999992,820.8809036999992,820.8809036999992,['1'],[0.5834063000002061],,,,,,,,,,,,,,,,,,,,,,,,,,,,,,,,,,,,,,,,,,,,,,,,,,,,,,,,,,,,,,,,,,,,,,,,200003,A,2022-10-07_17h41.54.941,mfe_b,2022.2.4,239.8558945772221,
csv_files/a_halfV_trialTable_11.csv,img/leftArrow.png,img/leftArrow.png,img/leftArrow.png,6,1,left,"[0, 0]","[0.0385, 0]","[-0.0385, 0]",img/neutralC/CFD-AM-228-214-N.jpg,"[0.035, 0.035]",,,,,,,,,,,,,,,,0,2,2,10,0,7,7,18,,,,,,,,,,,,,,,,,,,3.6713426853707416,,,,,,,,,,1,,,,,,,,,,,,,,,820.8809036999992,820.8809036999992,820.8809036999992,820.8809036999992,820.9157708999992,821.1210976999992,821.2337265999995,824.6709976999991,824.6709976999991,824.6709976999991,['1'],[0.553360399999292],,,,,,,,,,,,,,,,,,,,,,,,,,,,,,,,,,,,,,,,,,,,,,,,,,,,,,,,,,,,,,,,,,,,,,,,200003,A,2022-10-07_17h41.54.941,mfe_b,2022.2.4,239.8558945772221,
csv_files/a_halfV_trialTable_11.csv,img/rightArrow.png,img/leftArrow.png,img/leftArrow.png,7,0,right,"[0, 0]","[0.0385, 0]","[-0.0385, 0]",img/neutralC/CFD-BF-214-308-N.jpg,"[0.035, 0.035]",,,,,,,,,,,,,,,,0,2,2,10,0,8,8,5,,,,,,,,,,,,,,,,,,,3.7945891783567136,,,,,,,,,,1,,,,,,,,,,,,,,,824.6709976999991,824.6709976999991,824.6709976999991,824.6709976999991,824.7077305999992,824.9096193000005,825.0252254999996,828.5799224000002,828.5799224000002,828.5799224000002,['8'],[0.49988909999956377],,,,,,,,,,,,,,,,,,,,,,,,,,,,,,,,,,,,,,,,,,,,,,,,,,,,,,,,,,,,,,,,,,,,,,,,200003,A,2022-10-07_17h41.54.941,mfe_b,2022.2.4,239.8558945772221,
csv_files/a_halfV_trialTable_11.csv,img/leftArrow.png,img/leftArrow.png,img/leftArrow.png,6,1,left,"[0, 0]","[0.0385, 0]","[-0.0385, 0]",img/neutralC/CFD-WM-004-010-N.jpg,"[0.035, 0.035]",,,,,,,,,,,,,,,,0,2,2,10,0,9,9,3,,,,,,,,,,,,,,,,,,,3.756513026052104,,,,,,,,,,1,,,,,,,,,,,,,,,828.5799224000002,828.5799224000002,828.5799224000002,828.5799224000002,828.6154786000006,828.8191356000007,828.9345541999992,832.4521913000008,832.4521913000008,832.4521913000008,['1'],[0.4798024000010628],,,,,,,,,,,,,,,,,,,,,,,,,,,,,,,,,,,,,,,,,,,,,,,,,,,,,,,,,,,,,,,,,,,,,,,,200003,A,2022-10-07_17h41.54.941,mfe_b,2022.2.4,239.8558945772221,
csv_files/a_halfV_trialTable_11.csv,img/rightArrow.png,img/leftArrow.png,img/leftArrow.png,7,0,right,"[0, 0]","[0.0385, 0]","[-0.0385, 0]",img/neutralC/CFD-WF-226-095-N.jpg,"[0.035, 0.035]",,,,,,,,,,,,,,,,0,2,2,10,0,10,10,30,,,,,,,,,,,,,,,,,,,3.629258517034068,,,,,,,,,,1,,,,,,,,,,,,,,,832.4521913000008,832.4521913000008,832.4521913000008,832.4521913000008,832.4923257999999,832.6945809999997,832.8025488999992,836.1996115000002,836.1996115000002,836.1996115000002,['8'],[0.5025530999992043],,,,,,,,,,,,,,,,,,,,,,,,,,,,,,,,,,,,,,,,,,,,,,,,,,,,,,,,,,,,,,,,,,,,,,,,200003,A,2022-10-07_17h41.54.941,mfe_b,2022.2.4,239.8558945772221,
csv_files/a_halfV_trialTable_11.csv,img/leftArrow.png,img/rightArrow.png,img/rightArrow.png,8,0,left,"[0, 0]","[0.0385, 0]","[-0.0385, 0]",img/neutralC/CFD-IM-692-011-N.jpg,"[0.035, 0.035]",,,,,,,,,,,,,,,,0,2,2,10,0,11,11,14,,,,,,,,,,,,,,,,,,,3.6933867735470938,,,,,,,,,,1,,,,,,,,,,,,,,,836.1996115000002,836.1996115000002,836.1996115000002,836.1996115000002,836.2355738000006,836.4369597999994,836.5511805000006,840.0074022999997,840.0074022999997,840.0074022999997,['1'],[0.6287592999997287],,,,,,,,,,,,,,,,,,,,,,,,,,,,,,,,,,,,,,,,,,,,,,,,,,,,,,,,,,,,,,,,,,,,,,,,200003,A,2022-10-07_17h41.54.941,mfe_b,2022.2.4,239.8558945772221,
csv_files/a_halfV_trialTable_11.csv,img/rightArrow.png,img/leftArrow.png,img/leftArrow.png,7,0,right,"[0, 0]","[0.0385, 0]","[-0.0385, 0]",img/neutralC/CFD-IM-628-176-N.jpg,"[0.035, 0.035]",,,,,,,,,,,,,,,,0,2,2,10,0,12,12,29,,,,,,,,,,,,,,,,,,,3.8577154308617234,,,,,,,,,,1,,,,,,,,,,,,,,,840.0074022999997,840.0074022999997,840.0074022999997,840.0074022999997,840.0439523999994,840.2458752000002,840.3593137000007,843.9741396999998,843.9741396999998,843.9741396999998,['8'],[0.6707987999998295],,,,,,,,,,,,,,,,,,,,,,,,,,,,,,,,,,,,,,,,,,,,,,,,,,,,,,,,,,,,,,,,,,,,,,,,200003,A,2022-10-07_17h41.54.941,mfe_b,2022.2.4,239.8558945772221,
csv_files/a_halfV_trialTable_11.csv,img/leftArrow.png,img/rightArrow.png,img/rightArrow.png,8,0,left,"[0, 0]","[0.0385, 0]","[-0.0385, 0]",img/neutralC/CFD-AF-211-066-N.jpg,"[0.035, 0.035]",,,,,,,,,,,,,,,,0,2,2,10,0,13,13,10,,,,,,,,,,,,,,,,,,,3.996993987975952,,,,,,,,,,0,,,,,,,,,,,,,,,843.9741396999998,843.9741396999998,843.9741396999998,843.9741396999998,844.0201161000005,844.2205897000003,844.3264447000001,848.0814482000005,848.0814482000005,848.0814482000005,['8'],[1.6439576000011584],,,,,,,,,,,,,,,,,,,,,,,,,,,,,,,,,,,,,,,,,,,,,,,,,,,,,,,,,,,,,,,,,,,,,,,,200003,A,2022-10-07_17h41.54.941,mfe_b,2022.2.4,239.8558945772221,
csv_files/a_halfV_trialTable_11.csv,img/rightArrow.png,img/rightArrow.png,img/rightArrow.png,5,1,right,"[0, 0]","[0.0385, 0]","[-0.0385, 0]",img/neutralC/CFD-LM-239-075-N.jpg,"[0.035, 0.035]",,,,,,,,,,,,,,,,0,2,2,10,0,14,14,22,,,,,,,,,,,,,,,,,,,3.80561122244489,,,,,,,,,,1,,,,,,,,,,,,,,,848.0814482000005,848.0814482000005,848.0814482000005,848.0814482000005,848.1221396000001,848.3243889999994,848.4330226000002,852.0011424000004,852.0011424000004,852.0011424000004,['8'],[0.4607212000009895],,,,,,,,,,,,,,,,,,,,,,,,,,,,,,,,,,,,,,,,,,,,,,,,,,,,,,,,,,,,,,,,,,,,,,,,200003,A,2022-10-07_17h41.54.941,mfe_b,2022.2.4,239.8558945772221,
csv_files/a_halfV_trialTable_11.csv,img/leftArrow.png,img/rightArrow.png,img/rightArrow.png,8,0,left,"[0, 0]","[0.0385, 0]","[-0.0385, 0]",img/neutralC/CFD-MF-320-002-N.jpg,"[0.035, 0.035]",,,,,,,,,,,,,,,,0,2,2,10,0,15,15,0,,,,,,,,,,,,,,,,,,,3.531062124248497,,,,,,,,,,1,,,,,,,,,,,,,,,852.0011424000004,852.0011424000004,852.0011424000004,852.0011424000004,852.0416316999999,852.2481687,852.3554576999995,855.6483035000001,855.6483035000001,855.6483035000001,['1'],[0.43793710000136343],,,,,,,,,,,,,,,,,,,,,,,,,,,,,,,,,,,,,,,,,,,,,,,,,,,,,,,,,,,,,,,,,,,,,,,,200003,A,2022-10-07_17h41.54.941,mfe_b,2022.2.4,239.8558945772221,
csv_files/a_halfV_trialTable_11.csv,img/leftArrow.png,img/rightArrow.png,img/rightArrow.png,8,0,left,"[0, 0]","[0.0385, 0]","[-0.0385, 0]",img/neutralC/CFD-BF-044-034-N.jpg,"[0.035, 0.035]",,,,,,,,,,,,,,,,0,2,2,10,0,16,16,24,,,,,,,,,,,,,,,,,,,3.5781563126252505,,,,,,,,,,0,,,,,,,,,,,,,,,855.6483035000001,855.6483035000001,855.6483035000001,855.6483035000001,855.6917546000004,855.8920476000003,855.9999054,859.3295218999992,859.3295218999992,859.3295218999992,['8'],[1.0389416000016354],,,,,,,,,,,,,,,,,,,,,,,,,,,,,,,,,,,,,,,,,,,,,,,,,,,,,,,,,,,,,,,,,,,,,,,,200003,A,2022-10-07_17h41.54.941,mfe_b,2022.2.4,239.8558945772221,
csv_files/a_halfV_trialTable_11.csv,img/rightArrow.png,img/leftArrow.png,img/leftArrow.png,7,0,right,"[0, 0]","[0.0385, 0]","[-0.0385, 0]",img/neutralC/CFD-WM-243-107-N.jpg,"[0.035, 0.035]",,,,,,,,,,,,,,,,0,2,2,10,0,17,17,13,,,,,,,,,,,,,,,,,,,3.5631262525050102,,,,,,,,,,1,,,,,,,,,,,,,,,859.3295218999992,859.3295218999992,859.3295218999992,859.3295218999992,859.3827206999995,859.5873914999993,859.6804871000004,863.0139163999993,863.0139163999993,863.0139163999993,"['8', '8']","[0.5996391000007861, 3.531290299999455]",,,,,,,,,,,,,,,,,,,,,,,,,,,,,,,,,,,,,,,,,,,,,,,,,,,,,,,,,,,,,,,,,,,,,,,,200003,A,2022-10-07_17h41.54.941,mfe_b,2022.2.4,239.8558945772221,
csv_files/a_halfV_trialTable_11.csv,img/leftArrow.png,img/rightArrow.png,img/rightArrow.png,8,0,left,"[0, 0]","[0.0385, 0]","[-0.0385, 0]",img/neutralC/CFD-BF-027-002-N.jpg,"[0.035, 0.035]",,,,,,,,,,,,,,,,0,2,2,10,0,18,18,16,,,,,,,,,,,,,,,,,,,3.902805611222445,,,,,,,,,,1,,,,,,,,,,,,,,,863.0139163999993,863.0139163999993,863.0139163999993,863.0139163999993,863.0490645999998,863.2493718999995,863.3674611000006,867.0298041000005,867.0298041000005,867.0298041000005,None,,,,,,,,,,,,,,,,,,,,,,,,,,,,,,,,,,,,,,,,,,,,,,,,,,,,,,,,,,,,,,,,,,,,,,,,,200003,A,2022-10-07_17h41.54.941,mfe_b,2022.2.4,239.8558945772221,
csv_files/a_halfV_trialTable_11.csv,img/rightArrow.png,img/leftArrow.png,img/leftArrow.png,7,0,right,"[0, 0]","[0.0385, 0]","[-0.0385, 0]",img/neutralC/CFD-BF-024-002-N.jpg,"[0.035, 0.035]",,,,,,,,,,,,,,,,0,2,2,10,0,19,19,17,,,,,,,,,,,,,,,,,,,3.9849699398797593,,,,,,,,,,1,,,,,,,,,,,,,,,867.0298041000005,867.0298041000005,867.0298041000005,867.0298041000005,867.0723426000004,867.2734999999993,867.3834377999992,871.1371445999994,871.1371445999994,871.1371445999994,['8'],[0.5384121000006417],,,,,,,,,,,,,,,,,,,,,,,,,,,,,,,,,,,,,,,,,,,,,,,,,,,,,,,,,,,,,,,,,,,,,,,,200003,A,2022-10-07_17h41.54.941,mfe_b,2022.2.4,239.8558945772221,
csv_files/a_halfV_trialTable_11.csv,img/leftArrow.png,img/leftArrow.png,img/leftArrow.png,6,1,left,"[0, 0]","[0.0385, 0]","[-0.0385, 0]",img/neutralC/CFD-MM-302-002-N.jpg,"[0.035, 0.035]",,,,,,,,,,,,,,,,0,2,2,10,0,20,20,2,,,,,,,,,,,,,,,,,,,3.945891783567134,,,,,,,,,,1,,,,,,,,,,,,,,,871.1371445999994,871.1371445999994,871.1371445999994,871.1371445999994,871.1690555000005,871.3686904000006,871.4875558999993,875.1980991,875.1980991,875.1980991,['1'],[0.4749809000004461],,,,,,,,,,,,,,,,,,,,,,,,,,,,,,,,,,,,,,,,,,,,,,,,,,,,,,,,,,,,,,,,,,,,,,,,200003,A,2022-10-07_17h41.54.941,mfe_b,2022.2.4,239.8558945772221,
csv_files/a_halfV_trialTable_11.csv,img/leftArrow.png,img/rightArrow.png,img/rightArrow.png,8,0,left,"[0, 0]","[0.0385, 0]","[-0.0385, 0]",img/neutralC/CFD-MF-357-002-N.jpg,"[0.035, 0.035]",,,,,,,,,,,,,,,,0,2,2,10,0,21,21,21,,,,,,,,,,,,,,,,,,,3.9248496993987976,,,,,,,,,,1,,,,,,,,,,,,,,,875.1980991,875.1980991,875.1980991,875.1980991,875.2371652999991,875.4406899999994,875.5519122000005,879.2280582000003,879.2280582000003,879.2280582000003,['1'],[0.47667550000005576],,,,,,,,,,,,,,,,,,,,,,,,,,,,,,,,,,,,,,,,,,,,,,,,,,,,,,,,,,,,,,,,,,,,,,,,200003,A,2022-10-07_17h41.54.941,mfe_b,2022.2.4,239.8558945772221,
csv_files/a_halfV_trialTable_11.csv,img/rightArrow.png,img/leftArrow.png,img/leftArrow.png,7,0,right,"[0, 0]","[0.0385, 0]","[-0.0385, 0]",img/neutralC/CFD-AM-251-124-N.jpg,"[0.035, 0.035]",,,,,,,,,,,,,,,,0,2,2,10,0,22,22,27,,,,,,,,,,,,,,,,,,,3.8396793587174347,,,,,,,,,,1,,,,,,,,,,,,,,,879.2280582000003,879.2280582000003,879.2280582000003,879.2280582000003,879.2770092999999,879.4795656000006,879.5799432000003,883.1903160999991,883.1903160999991,883.1903160999991,['8'],[0.4546962000003987],,,,,,,,,,,,,,,,,,,,,,,,,,,,,,,,,,,,,,,,,,,,,,,,,,,,,,,,,,,,,,,,,,,,,,,,200003,A,2022-10-07_17h41.54.941,mfe_b,2022.2.4,239.8558945772221,
csv_files/a_halfV_trialTable_11.csv,img/leftArrow.png,img/leftArrow.png,img/leftArrow.png,6,1,left,"[0, 0]","[0.0385, 0]","[-0.0385, 0]",img/neutralC/CFD-LM-206-204-N.jpg,"[0.035, 0.035]",,,,,,,,,,,,,,,,0,2,2,10,0,23,23,6,,,,,,,,,,,,,,,,,,,3.6713426853707416,,,,,,,,,,1,,,,,,,,,,,,,,,883.1903160999991,883.1903160999991,883.1903160999991,883.1903160999991,883.2205689999992,883.4211503999995,883.5394292000001,886.9738536000004,886.9738536000004,886.9738536000004,['1'],[0.364671700001054],,,,,,,,,,,,,,,,,,,,,,,,,,,,,,,,,,,,,,,,,,,,,,,,,,,,,,,,,,,,,,,,,,,,,,,,200003,A,2022-10-07_17h41.54.941,mfe_b,2022.2.4,239.8558945772221,
csv_files/a_halfV_trialTable_11.csv,img/leftArrow.png,img/leftArrow.png,img/leftArrow.png,6,1,left,"[0, 0]","[0.0385, 0]","[-0.0385, 0]",img/neutralC/CFD-LM-242-002-N.jpg,"[0.035, 0.035]",,,,,,,,,,,,,,,,0,2,2,10,0,24,24,4,,,,,,,,,,,,,,,,,,,3.9559118236472948,,,,,,,,,,1,,,,,,,,,,,,,,,886.9738536000004,886.9738536000004,886.9738536000004,886.9738536000004,887.0149007,887.2224459000008,887.3257938999996,891.0548600999991,891.0548600999991,891.0548600999991,['1'],[1.1959876000000804],,,,,,,,,,,,,,,,,,,,,,,,,,,,,,,,,,,,,,,,,,,,,,,,,,,,,,,,,,,,,,,,,,,,,,,,200003,A,2022-10-07_17h41.54.941,mfe_b,2022.2.4,239.8558945772221,
csv_files/a_halfV_trialTable_11.csv,img/rightArrow.png,img/rightArrow.png,img/rightArrow.png,5,1,right,"[0, 0]","[0.0385, 0]","[-0.0385, 0]",img/neutralC/CFD-IM-667-369-N.jpg,"[0.035, 0.035]",,,,,,,,,,,,,,,,0,2,2,10,0,25,25,26,,,,,,,,,,,,,,,,,,,3.7074148296593186,,,,,,,,,,1,,,,,,,,,,,,,,,891.0548600999991,891.0548600999991,891.0548600999991,891.0548600999991,891.0850953999998,891.2876966999993,891.4048898000001,894.8604445000001,894.8604445000001,894.8604445000001,['8'],[0.9256259000012506],,,,,,,,,,,,,,,,,,,,,,,,,,,,,,,,,,,,,,,,,,,,,,,,,,,,,,,,,,,,,,,,,,,,,,,,200003,A,2022-10-07_17h41.54.941,mfe_b,2022.2.4,239.8558945772221,
csv_files/a_halfV_trialTable_11.csv,img/leftArrow.png,img/leftArrow.png,img/leftArrow.png,6,1,left,"[0, 0]","[0.0385, 0]","[-0.0385, 0]",img/neutralC/CFD-BF-221-223-N.jpg,"[0.035, 0.035]",,,,,,,,,,,,,,,,0,2,2,10,0,26,26,12,,,,,,,,,,,,,,,,,,,3.7314629258517034,,,,,,,,,,1,,,,,,,,,,,,,,,894.8604445000001,894.8604445000001,894.8604445000001,894.8604445000001,894.9153903999995,895.1181149000004,895.2126993000002,898.7051838000007,898.7051838000007,898.7051838000007,['1'],[0.4939417000005051],,,,,,,,,,,,,,,,,,,,,,,,,,,,,,,,,,,,,,,,,,,,,,,,,,,,,,,,,,,,,,,,,,,,,,,,200003,A,2022-10-07_17h41.54.941,mfe_b,2022.2.4,239.8558945772221,
csv_files/a_halfV_trialTable_11.csv,img/rightArrow.png,img/leftArrow.png,img/leftArrow.png,7,0,right,"[0, 0]","[0.0385, 0]","[-0.0385, 0]",img/neutralC/CFD-IM-697-015-N.jpg,"[0.035, 0.035]",,,,,,,,,,,,,,,,0,2,2,10,0,27,27,23,,,,,,,,,,,,,,,,,,,3.741482965931864,,,,,,,,,,1,,,,,,,,,,,,,,,898.7051838000007,898.7051838000007,898.7051838000007,898.7051838000007,898.7406699000003,898.9410564999998,899.054890899999,902.5484720000004,902.5484720000004,902.5484720000004,None,,,,,,,,,,,,,,,,,,,,,,,,,,,,,,,,,,,,,,,,,,,,,,,,,,,,,,,,,,,,,,,,,,,,,,,,,200003,A,2022-10-07_17h41.54.941,mfe_b,2022.2.4,239.8558945772221,
csv_files/a_halfV_trialTable_11.csv,img/rightArrow.png,img/leftArrow.png,img/leftArrow.png,7,0,right,"[0, 0]","[0.0385, 0]","[-0.0385, 0]",img/neutralC/CFD-BF-028-001-N.jpg,"[0.035, 0.035]",,,,,,,,,,,,,,,,0,2,2,10,0,28,28,19,,,,,,,,,,,,,,,,,,,3.651302605210421,,,,,,,,,,1,,,,,,,,,,,,,,,902.5484720000004,902.5484720000004,902.5484720000004,902.5484720000004,902.5975111999996,902.7992575000007,902.8979061999999,906.3028236999999,906.3028236999999,906.3028236999999,['8'],[0.5444164000000455],,,,,,,,,,,,,,,,,,,,,,,,,,,,,,,,,,,,,,,,,,,,,,,,,,,,,,,,,,,,,,,,,,,,,,,,200003,A,2022-10-07_17h41.54.941,mfe_b,2022.2.4,239.8558945772221,
csv_files/a_halfV_trialTable_11.csv,img/rightArrow.png,img/rightArrow.png,img/rightArrow.png,5,1,right,"[0, 0]","[0.0385, 0]","[-0.0385, 0]",img/neutralC/CFD-LF-202-065-N.jpg,"[0.035, 0.035]",,,,,,,,,,,,,,,,0,2,2,10,0,29,29,11,,,,,,,,,,,,,,,,,,,3.7384769539078158,,,,,,,,,,1,,,,,,,,,,,,,,,906.3028236999999,906.3028236999999,906.3028236999999,906.3028236999999,906.3533989999996,906.5561321999994,906.6533426000005,910.1646918000006,910.1646918000006,910.1646918000006,['8'],[0.3841367999993963],,,,,,,,,,,,,,,,,,,,,,,,,,,,,,,,,,,,,,,,,,,,,,,,,,,,,,,,,,,,,,,,,,,,,,,,200003,A,2022-10-07_17h41.54.941,mfe_b,2022.2.4,239.8558945772221,
csv_files/a_halfV_trialTable_11.csv,img/leftArrow.png,img/rightArrow.png,img/rightArrow.png,8,0,left,"[0, 0]","[0.0385, 0]","[-0.0385, 0]",img/neutralC/CFD-MF-308-001-N.jpg,"[0.035, 0.035]",,,,,,,,,,,,,,,,0,2,2,10,0,30,30,7,,,,,,,,,,,,,,,,,,,3.8967935871743484,,,,,,,,,,0,,,,,,,,,,,,,,,910.1646918000006,910.1646918000006,910.1646918000006,910.1646918000006,910.1962364999999,910.3963456999991,910.5197673000002,914.1796799000003,914.1796799000003,914.1796799000003,['8'],[0.840758199999982],,,,,,,,,,,,,,,,,,,,,,,,,,,,,,,,,,,,,,,,,,,,,,,,,,,,,,,,,,,,,,,,,,,,,,,,200003,A,2022-10-07_17h41.54.941,mfe_b,2022.2.4,239.8558945772221,
csv_files/a_halfV_trialTable_11.csv,img/rightArrow.png,img/rightArrow.png,img/rightArrow.png,5,1,right,"[0, 0]","[0.0385, 0]","[-0.0385, 0]",img/neutralC/CFD-WM-026-001-N.jpg,"[0.035, 0.035]",,,,,,,,,,,,,,,,0,2,2,10,0,31,31,1,,,,,,,,,,,,,,,,,,,3.526052104208417,,,,,,,,,,1,,,,,,,,,,,,,,,914.1796799000003,914.1796799000003,914.1796799000003,914.1796799000003,914.2153830999996,914.4161862000001,914.5301509000001,917.7102228999993,917.7102228999993,917.7102228999993,['8'],[1.338318199999776],,,,,,,,,,,,,,,,,,,,,,,,,,,,,,,,,,,,,,,,,,,,,,,,,,,,,,,,,,,,,,,,,,,,,,,,200003,A,2022-10-07_17h41.54.941,mfe_b,2022.2.4,239.8558945772221,
csv_files/a_halfV_trialTable_11.csv,,,,,,,,,,,,,,,,,,,,,,,,,,,0,2,2,10,,,,,,,,,,,,,,,,,,,,,,,,,,,,,,,,,,,,,,,,,,,,,,,,,,,,,,,,,,,,1,917.7102228999993,927.7080193000002,8,1.4064987000001565,,,,,,,,,,,,,,,,,,,,,,,,,,,,,,,,,,,,,,,,,,,,,,,,,,,,,,,,,,,,,,,,,,,200003,A,2022-10-07_17h41.54.941,mfe_b,2022.2.4,239.8558945772221,
csv_files/a_halfV_trialTable_6.csv,img/leftArrow.png,img/rightArrow.png,img/rightArrow.png,8,0,left,"[0, 0]","[0.0385, 0]","[-0.0385, 0]",img/neutralC/CFD-IM-646-023-N.jpg,"[0.035, 0.035]",,,,,,,,,,,,,,,,0,3,3,5,0,0,0,10,,,,,,,,,,,,,,,,,,932.0325529999991,3.838677354709419,,,,,,,,,,1,,,,,,,,,,,929.1328319000004,929.1328319000004,8,2.8790700000008655,934.1708870000002,934.1708870000002,934.1708870000002,934.1708870000002,934.1788787999994,934.3784049000005,934.5207745999996,938.1110678000005,938.1110678000005,938.1110678000005,['1'],[0.5958788000007189],,,,,,,,,,,,,,,,,,,,,,,,,,,,,,,,,,,,,,,,,,,,,,,,,,,,,,,,,,,,,,,,,,,,,,,,200003,A,2022-10-07_17h41.54.941,mfe_b,2022.2.4,239.8558945772221,
csv_files/a_halfV_trialTable_6.csv,img/leftArrow.png,img/rightArrow.png,img/rightArrow.png,8,0,left,"[0, 0]","[0.0385, 0]","[-0.0385, 0]",img/neutralC/CFD-MM-300-035-N.jpg,"[0.035, 0.035]",,,,,,,,,,,,,,,,0,3,3,5,0,1,1,3,,,,,,,,,,,,,,,,,,,3.682364729458918,,,,,,,,,,1,,,,,,,,,,,,,,,938.1110678000005,938.1110678000005,938.1110678000005,938.1110678000005,938.161755699999,938.3674314,938.4611963999996,941.9196386999993,941.9196386999993,941.9196386999993,['1'],[0.6316495999999461],,,,,,,,,,,,,,,,,,,,,,,,,,,,,,,,,,,,,,,,,,,,,,,,,,,,,,,,,,,,,,,,,,,,,,,,200003,A,2022-10-07_17h41.54.941,mfe_b,2022.2.4,239.8558945772221,
csv_files/a_halfV_trialTable_6.csv,img/rightArrow.png,img/leftArrow.png,img/leftArrow.png,7,0,right,"[0, 0]","[0.0385, 0]","[-0.0385, 0]",img/neutralC/CFD-IM-699-002-N.jpg,"[0.035, 0.035]",,,,,,,,,,,,,,,,0,3,3,5,0,2,2,20,,,,,,,,,,,,,,,,,,,3.691382765531062,,,,,,,,,,1,,,,,,,,,,,,,,,941.9196386999993,941.9196386999993,941.9196386999993,941.9196386999993,941.9481178999995,942.1529783999995,942.2743735000004,945.7330053999995,945.7330053999995,945.7330053999995,['8'],[1.3401079000013851],,,,,,,,,,,,,,,,,,,,,,,,,,,,,,,,,,,,,,,,,,,,,,,,,,,,,,,,,,,,,,,,,,,,,,,,200003,A,2022-10-07_17h41.54.941,mfe_b,2022.2.4,239.8558945772221,
csv_files/a_halfV_trialTable_6.csv,img/rightArrow.png,img/rightArrow.png,img/rightArrow.png,5,1,right,"[0, 0]","[0.0385, 0]","[-0.0385, 0]",img/neutralC/CFD-IF-741-040-N.jpg,"[0.035, 0.035]",,,,,,,,,,,,,,,,0,3,3,5,0,3,3,1,,,,,,,,,,,,,,,,,,,3.5551102204408815,,,,,,,,,,1,,,,,,,,,,,,,,,945.7330053999995,945.7330053999995,945.7330053999995,945.7330053999995,945.7644345000008,945.9678717999996,946.0857073000006,949.4039649999995,949.4039649999995,949.4039649999995,['8'],[0.8532359000000724],,,,,,,,,,,,,,,,,,,,,,,,,,,,,,,,,,,,,,,,,,,,,,,,,,,,,,,,,,,,,,,,,,,,,,,,200003,A,2022-10-07_17h41.54.941,mfe_b,2022.2.4,239.8558945772221,
csv_files/a_halfV_trialTable_6.csv,img/rightArrow.png,img/rightArrow.png,img/rightArrow.png,5,1,right,"[0, 0]","[0.0385, 0]","[-0.0385, 0]",img/neutralC/CFD-BF-212-315-N.jpg,"[0.035, 0.035]",,,,,,,,,,,,,,,,0,3,3,5,0,4,4,18,,,,,,,,,,,,,,,,,,,3.726452905811623,,,,,,,,,,1,,,,,,,,,,,,,,,949.4039649999995,949.4039649999995,949.4039649999995,949.4039649999995,949.438810399999,949.6386688000002,949.7576229000006,953.2563967999995,953.2563967999995,953.2563967999995,['8'],[0.706282299999657],,,,,,,,,,,,,,,,,,,,,,,,,,,,,,,,,,,,,,,,,,,,,,,,,,,,,,,,,,,,,,,,,,,,,,,,200003,A,2022-10-07_17h41.54.941,mfe_b,2022.2.4,239.8558945772221,
csv_files/a_halfV_trialTable_6.csv,img/leftArrow.png,img/leftArrow.png,img/leftArrow.png,6,1,left,"[0, 0]","[0.0385, 0]","[-0.0385, 0]",img/neutralC/CFD-WF-215-145-N.jpg,"[0.035, 0.035]",,,,,,,,,,,,,,,,0,3,3,5,0,5,5,24,,,,,,,,,,,,,,,,,,,3.620240480961924,,,,,,,,,,1,,,,,,,,,,,,,,,953.2563967999995,953.2563967999995,953.2563967999995,953.2563967999995,953.2830094000001,953.4829714999996,953.6067750999991,956.9894698999997,956.9894698999997,956.9894698999997,['1'],[0.5245861999992485],,,,,,,,,,,,,,,,,,,,,,,,,,,,,,,,,,,,,,,,,,,,,,,,,,,,,,,,,,,,,,,,,,,,,,,,200003,A,2022-10-07_17h41.54.941,mfe_b,2022.2.4,239.8558945772221,
csv_files/a_halfV_trialTable_6.csv,img/leftArrow.png,img/leftArrow.png,img/leftArrow.png,6,1,left,"[0, 0]","[0.0385, 0]","[-0.0385, 0]",img/neutralC/CFD-AF-253-130-N.jpg,"[0.035, 0.035]",,,,,,,,,,,,,,,,0,3,3,5,0,6,6,6,,,,,,,,,,,,,,,,,,,3.8867735470941884,,,,,,,,,,1,,,,,,,,,,,,,,,956.9894698999997,956.9894698999997,956.9894698999997,956.9894698999997,957.0303438999999,957.2352300999992,957.3402821,960.9913290999993,960.9913290999993,960.9913290999993,['1'],[0.7485837000003812],,,,,,,,,,,,,,,,,,,,,,,,,,,,,,,,,,,,,,,,,,,,,,,,,,,,,,,,,,,,,,,,,,,,,,,,200003,A,2022-10-07_17h41.54.941,mfe_b,2022.2.4,239.8558945772221,
csv_files/a_halfV_trialTable_6.csv,img/rightArrow.png,img/rightArrow.png,img/rightArrow.png,5,1,right,"[0, 0]","[0.0385, 0]","[-0.0385, 0]",img/neutralC/CFD-AF-201-060-N.jpg,"[0.035, 0.035]",,,,,,,,,,,,,,,,0,3,3,5,0,7,7,2,,,,,,,,,,,,,,,,,,,3.977955911823647,,,,,,,,,,1,,,,,,,,,,,,,,,960.9913290999993,960.9913290999993,960.9913290999993,960.9913290999993,961.0273137000004,961.2343488000006,961.3459449999991,965.0799867000005,965.0799867000005,965.0799867000005,None,,,,,,,,,,,,,,,,,,,,,,,,,,,,,,,,,,,,,,,,,,,,,,,,,,,,,,,,,,,,,,,,,,,,,,,,,200003,A,2022-10-07_17h41.54.941,mfe_b,2022.2.4,239.8558945772221,
csv_files/a_halfV_trialTable_6.csv,img/leftArrow.png,img/leftArrow.png,img/leftArrow.png,6,1,left,"[0, 0]","[0.0385, 0]","[-0.0385, 0]",img/neutralC/CFD-WM-218-074-N.jpg,"[0.035, 0.035]",,,,,,,,,,,,,,,,0,3,3,5,0,8,8,28,,,,,,,,,,,,,,,,,,,3.7194388777555107,,,,,,,,,,1,,,,,,,,,,,,,,,965.0799867000005,965.0799867000005,965.0799867000005,965.0799867000005,965.1187955000005,965.3195262999998,965.4332059000008,968.9037982999998,968.9037982999998,968.9037982999998,None,,,,,,,,,,,,,,,,,,,,,,,,,,,,,,,,,,,,,,,,,,,,,,,,,,,,,,,,,,,,,,,,,,,,,,,,,200003,A,2022-10-07_17h41.54.941,mfe_b,2022.2.4,239.8558945772221,
csv_files/a_halfV_trialTable_6.csv,img/rightArrow.png,img/leftArrow.png,img/leftArrow.png,7,0,right,"[0, 0]","[0.0385, 0]","[-0.0385, 0]",img/neutralC/CFD-IF-629-234-N.jpg,"[0.035, 0.035]",,,,,,,,,,,,,,,,0,3,3,5,0,9,9,5,,,,,,,,,,,,,,,,,,,3.527054108216433,,,,,,,,,,1,,,,,,,,,,,,,,,968.9037982999998,968.9037982999998,968.9037982999998,968.9037982999998,968.9563763999995,969.1580553999993,969.2566270999996,972.5322200999999,972.5322200999999,972.5322200999999,None,,,,,,,,,,,,,,,,,,,,,,,,,,,,,,,,,,,,,,,,,,,,,,,,,,,,,,,,,,,,,,,,,,,,,,,,,200003,A,2022-10-07_17h41.54.941,mfe_b,2022.2.4,239.8558945772221,
csv_files/a_halfV_trialTable_6.csv,img/rightArrow.png,img/leftArrow.png,img/leftArrow.png,7,0,right,"[0, 0]","[0.0385, 0]","[-0.0385, 0]",img/neutralC/CFD-LF-220-120-N.jpg,"[0.035, 0.035]",,,,,,,,,,,,,,,,0,3,3,5,0,10,10,0,,,,,,,,,,,,,,,,,,,3.7314629258517034,,,,,,,,,,1,,,,,,,,,,,,,,,972.5322200999999,972.5322200999999,972.5322200999999,972.5322200999999,972.5834653999991,972.7840039999992,972.8910601000007,976.3723126999994,976.3723126999994,976.3723126999994,['8'],[0.6577066000008926],,,,,,,,,,,,,,,,,,,,,,,,,,,,,,,,,,,,,,,,,,,,,,,,,,,,,,,,,,,,,,,,,,,,,,,,200003,A,2022-10-07_17h41.54.941,mfe_b,2022.2.4,239.8558945772221,
csv_files/a_halfV_trialTable_6.csv,img/rightArrow.png,img/leftArrow.png,img/leftArrow.png,7,0,right,"[0, 0]","[0.0385, 0]","[-0.0385, 0]",img/neutralC/CFD-LM-232-204-N.jpg,"[0.035, 0.035]",,,,,,,,,,,,,,,,0,3,3,5,0,11,11,12,,,,,,,,,,,,,,,,,,,3.9849699398797593,,,,,,,,,,1,,,,,,,,,,,,,,,976.3723126999994,976.3723126999994,976.3723126999994,976.3723126999994,976.4187803000004,976.6258670999996,976.7273124999992,980.4844025000002,980.4844025000002,980.4844025000002,['8'],[0.39376500000071246],,,,,,,,,,,,,,,,,,,,,,,,,,,,,,,,,,,,,,,,,,,,,,,,,,,,,,,,,,,,,,,,,,,,,,,,200003,A,2022-10-07_17h41.54.941,mfe_b,2022.2.4,239.8558945772221,
csv_files/a_halfV_trialTable_6.csv,img/rightArrow.png,img/leftArrow.png,img/leftArrow.png,7,0,right,"[0, 0]","[0.0385, 0]","[-0.0385, 0]",img/neutralC/CFD-IF-672-305-N.jpg,"[0.035, 0.035]",,,,,,,,,,,,,,,,0,3,3,5,0,12,12,21,,,,,,,,,,,,,,,,,,,3.8967935871743484,,,,,,,,,,1,,,,,,,,,,,,,,,980.4844025000002,980.4844025000002,980.4844025000002,980.4844025000002,980.5111703000002,980.7115008000001,980.8353048999998,984.4987500000007,984.4987500000007,984.4987500000007,['8'],[0.35888059999888355],,,,,,,,,,,,,,,,,,,,,,,,,,,,,,,,,,,,,,,,,,,,,,,,,,,,,,,,,,,,,,,,,,,,,,,,200003,A,2022-10-07_17h41.54.941,mfe_b,2022.2.4,239.8558945772221,
csv_files/a_halfV_trialTable_6.csv,img/leftArrow.png,img/leftArrow.png,img/leftArrow.png,6,1,left,"[0, 0]","[0.0385, 0]","[-0.0385, 0]",img/neutralC/CFD-LF-242-121-N.jpg,"[0.035, 0.035]",,,,,,,,,,,,,,,,0,3,3,5,0,13,13,7,,,,,,,,,,,,,,,,,,,3.8567134268537075,,,,,,,,,,1,,,,,,,,,,,,,,,984.4987500000007,984.4987500000007,984.4987500000007,984.4987500000007,984.5351862000007,984.7356727999995,984.8517346000008,988.4713525000006,988.4713525000006,988.4713525000006,['1'],[0.43643080000038026],,,,,,,,,,,,,,,,,,,,,,,,,,,,,,,,,,,,,,,,,,,,,,,,,,,,,,,,,,,,,,,,,,,,,,,,200003,A,2022-10-07_17h41.54.941,mfe_b,2022.2.4,239.8558945772221,
csv_files/a_halfV_trialTable_6.csv,img/leftArrow.png,img/rightArrow.png,img/rightArrow.png,8,0,left,"[0, 0]","[0.0385, 0]","[-0.0385, 0]",img/neutralC/CFD-LM-209-111-N.jpg,"[0.035, 0.035]",,,,,,,,,,,,,,,,0,3,3,5,0,14,14,11,,,,,,,,,,,,,,,,,,,3.8657314629258517,,,,,,,,,,1,,,,,,,,,,,,,,,988.4713525000006,988.4713525000006,988.4713525000006,988.4713525000006,988.5074671999992,988.7080528000006,988.8233954000007,992.4521960000002,992.4521960000002,992.4521960000002,['1'],[0.5124276000005921],,,,,,,,,,,,,,,,,,,,,,,,,,,,,,,,,,,,,,,,,,,,,,,,,,,,,,,,,,,,,,,,,,,,,,,,200003,A,2022-10-07_17h41.54.941,mfe_b,2022.2.4,239.8558945772221,
csv_files/a_halfV_trialTable_6.csv,img/rightArrow.png,img/rightArrow.png,img/rightArrow.png,5,1,right,"[0, 0]","[0.0385, 0]","[-0.0385, 0]",img/neutralC/CFD-WF-224-099-N.jpg,"[0.035, 0.035]",,,,,,,,,,,,,,,,0,3,3,5,0,15,15,15,,,,,,,,,,,,,,,,,,,3.6052104208416837,,,,,,,,,,1,,,,,,,,,,,,,,,992.4521960000002,992.4521960000002,992.4521960000002,992.4521960000002,992.4875952999992,992.6888423,992.8047083000001,996.1537800000006,996.1537800000006,996.1537800000006,['8'],[0.4564408000005642],,,,,,,,,,,,,,,,,,,,,,,,,,,,,,,,,,,,,,,,,,,,,,,,,,,,,,,,,,,,,,,,,,,,,,,,200003,A,2022-10-07_17h41.54.941,mfe_b,2022.2.4,239.8558945772221,
csv_files/a_halfV_trialTable_6.csv,img/rightArrow.png,img/rightArrow.png,img/rightArrow.png,5,1,right,"[0, 0]","[0.0385, 0]","[-0.0385, 0]",img/neutralC/CFD-AF-254-167-N.jpg,"[0.035, 0.035]",,,,,,,,,,,,,,,,0,3,3,5,0,16,16,16,,,,,,,,,,,,,,,,,,,3.823647294589178,,,,,,,,,,1,,,,,,,,,,,,,,,996.1537800000006,996.1537800000006,996.1537800000006,996.1537800000006,996.2130085999997,996.4164832999995,996.5038052,1000.0873625999993,1000.0873625999993,1000.0873625999993,['8'],[0.40589580000050773],,,,,,,,,,,,,,,,,,,,,,,,,,,,,,,,,,,,,,,,,,,,,,,,,,,,,,,,,,,,,,,,,,,,,,,,200003,A,2022-10-07_17h41.54.941,mfe_b,2022.2.4,239.8558945772221,
csv_files/a_halfV_trialTable_6.csv,img/leftArrow.png,img/leftArrow.png,img/leftArrow.png,6,1,left,"[0, 0]","[0.0385, 0]","[-0.0385, 0]",img/neutralC/CFD-WM-014-002-N.jpg,"[0.035, 0.035]",,,,,,,,,,,,,,,,0,3,3,5,0,17,17,29,,,,,,,,,,,,,,,,,,,3.812625250501002,,,,,,,,,,1,,,,,,,,,,,,,,,1000.0873625999993,1000.0873625999993,1000.0873625999993,1000.0873625999993,1000.1267664000006,1000.3301006000002,1000.4400342999998,1004.0145866999992,1004.0145866999992,1004.0145866999992,['1'],[0.4061673000014707],,,,,,,,,,,,,,,,,,,,,,,,,,,,,,,,,,,,,,,,,,,,,,,,,,,,,,,,,,,,,,,,,,,,,,,,200003,A,2022-10-07_17h41.54.941,mfe_b,2022.2.4,239.8558945772221,
csv_files/a_halfV_trialTable_6.csv,img/rightArrow.png,img/rightArrow.png,img/rightArrow.png,5,1,right,"[0, 0]","[0.0385, 0]","[-0.0385, 0]",img/neutralC/CFD-MF-334-002-N.jpg,"[0.035, 0.035]",,,,,,,,,,,,,,,,0,3,3,5,0,18,18,13,,,,,,,,,,,,,,,,,,,3.5110220440881763,,,,,,,,,,1,,,,,,,,,,,,,,,1004.0145866999992,1004.0145866999992,1004.0145866999992,1004.0145866999992,1004.0540258000001,1004.2618046999996,1004.3646807999994,1007.6423598000001,1007.6423598000001,1007.6423598000001,['8'],[0.36350469999888446],,,,,,,,,,,,,,,,,,,,,,,,,,,,,,,,,,,,,,,,,,,,,,,,,,,,,,,,,,,,,,,,,,,,,,,,200003,A,2022-10-07_17h41.54.941,mfe_b,2022.2.4,239.8558945772221,
csv_files/a_halfV_trialTable_6.csv,img/rightArrow.png,img/leftArrow.png,img/leftArrow.png,7,0,right,"[0, 0]","[0.0385, 0]","[-0.0385, 0]",img/neutralC/CFD-LM-220-329-N.jpg,"[0.035, 0.035]",,,,,,,,,,,,,,,,0,3,3,5,0,19,19,23,,,,,,,,,,,,,,,,,,,3.624248496993988,,,,,,,,,,1,,,,,,,,,,,,,,,1007.6423598000001,1007.6423598000001,1007.6423598000001,1007.6423598000001,1007.6861735000002,1007.8854950000004,1007.9959269999999,1011.3742775999999,1011.3742775999999,1011.3742775999999,None,,,,,,,,,,,,,,,,,,,,,,,,,,,,,,,,,,,,,,,,,,,,,,,,,,,,,,,,,,,,,,,,,,,,,,,,,200003,A,2022-10-07_17h41.54.941,mfe_b,2022.2.4,239.8558945772221,
csv_files/a_halfV_trialTable_6.csv,img/rightArrow.png,img/rightArrow.png,img/rightArrow.png,5,1,right,"[0, 0]","[0.0385, 0]","[-0.0385, 0]",img/neutralC/CFD-BM-251-013-N.jpg,"[0.035, 0.035]",,,,,,,,,,,,,,,,0,3,3,5,0,20,20,25,,,,,,,,,,,,,,,,,,,3.8927855711422845,,,,,,,,,,1,,,,,,,,,,,,,,,1011.3742775999999,1011.3742775999999,1011.3742775999999,1011.3742775999999,1011.4194537000003,1011.6224332999991,1011.7286461000003,1015.3873409000007,1015.3873409000007,1015.3873409000007,None,,,,,,,,,,,,,,,,,,,,,,,,,,,,,,,,,,,,,,,,,,,,,,,,,,,,,,,,,,,,,,,,,,,,,,,,,200003,A,2022-10-07_17h41.54.941,mfe_b,2022.2.4,239.8558945772221,
csv_files/a_halfV_trialTable_6.csv,img/rightArrow.png,img/rightArrow.png,img/rightArrow.png,5,1,right,"[0, 0]","[0.0385, 0]","[-0.0385, 0]",img/neutralC/CFD-MF-333-012-N.jpg,"[0.035, 0.035]",,,,,,,,,,,,,,,,0,3,3,5,0,21,21,22,,,,,,,,,,,,,,,,,,,3.6432865731462925,,,,,,,,,,1,,,,,,,,,,,,,,,1015.3873409000007,1015.3873409000007,1015.3873409000007,1015.3873409000007,1015.4203995000007,1015.6213587000002,1015.7366961999996,1019.1322323999993,1019.1322323999993,1019.1322323999993,None,,,,,,,,,,,,,,,,,,,,,,,,,,,,,,,,,,,,,,,,,,,,,,,,,,,,,,,,,,,,,,,,,,,,,,,,,200003,A,2022-10-07_17h41.54.941,mfe_b,2022.2.4,239.8558945772221,
csv_files/a_halfV_trialTable_6.csv,img/rightArrow.png,img/leftArrow.png,img/leftArrow.png,7,0,right,"[0, 0]","[0.0385, 0]","[-0.0385, 0]",img/neutralC/CFD-BM-213-134-N.jpg,"[0.035, 0.035]",,,,,,,,,,,,,,,,0,3,3,5,0,22,22,9,,,,,,,,,,,,,,,,,,,3.7745490981963927,,,,,,,,,,1,,,,,,,,,,,,,,,1019.1322323999993,1019.1322323999993,1019.1322323999993,1019.1322323999993,1019.1826844999996,1019.3869620999994,1019.4865511000007,1023.0174965999995,1023.0174965999995,1023.0174965999995,['8'],[0.5084451000002446],,,,,,,,,,,,,,,,,,,,,,,,,,,,,,,,,,,,,,,,,,,,,,,,,,,,,,,,,,,,,,,,,,,,,,,,200003,A,2022-10-07_17h41.54.941,mfe_b,2022.2.4,239.8558945772221,
csv_files/a_halfV_trialTable_6.csv,img/leftArrow.png,img/rightArrow.png,img/rightArrow.png,8,0,left,"[0, 0]","[0.0385, 0]","[-0.0385, 0]",img/neutralC/CFD-WM-001-014-N.jpg,"[0.035, 0.035]",,,,,,,,,,,,,,,,0,3,3,5,0,23,23,17,,,,,,,,,,,,,,,,,,,3.943887775551102,,,,,,,,,,1,,,,,,,,,,,,,,,1023.0174965999995,1023.0174965999995,1023.0174965999995,1023.0174965999995,1023.0582076999999,1023.2634959999996,1023.3707512000001,1027.0801331999992,1027.0801331999992,1027.0801331999992,['1'],[0.5045124999996915],,,,,,,,,,,,,,,,,,,,,,,,,,,,,,,,,,,,,,,,,,,,,,,,,,,,,,,,,,,,,,,,,,,,,,,,200003,A,2022-10-07_17h41.54.941,mfe_b,2022.2.4,239.8558945772221,
csv_files/a_halfV_trialTable_6.csv,img/leftArrow.png,img/rightArrow.png,img/rightArrow.png,8,0,left,"[0, 0]","[0.0385, 0]","[-0.0385, 0]",img/neutralC/CFD-WM-200-034-N.jpg,"[0.035, 0.035]",,,,,,,,,,,,,,,,0,3,3,5,0,24,24,30,,,,,,,,,,,,,,,,,,,3.8366733466933867,,,,,,,,,,1,,,,,,,,,,,,,,,1027.0801331999992,1027.0801331999992,1027.0801331999992,1027.0801331999992,1027.1164085,1027.3160810999998,1027.4344708000008,1031.0320023999993,1031.0320023999993,1031.0320023999993,['1'],[0.4627770999995846],,,,,,,,,,,,,,,,,,,,,,,,,,,,,,,,,,,,,,,,,,,,,,,,,,,,,,,,,,,,,,,,,,,,,,,,200003,A,2022-10-07_17h41.54.941,mfe_b,2022.2.4,239.8558945772221,
csv_files/a_halfV_trialTable_6.csv,img/leftArrow.png,img/leftArrow.png,img/leftArrow.png,6,1,left,"[0, 0]","[0.0385, 0]","[-0.0385, 0]",img/neutralC/CFD-LF-252-172-N.jpg,"[0.035, 0.035]",,,,,,,,,,,,,,,,0,3,3,5,0,25,25,19,,,,,,,,,,,,,,,,,,,3.9308617234468937,,,,,,,,,,1,,,,,,,,,,,,,,,1031.0320023999993,1031.0320023999993,1031.0320023999993,1031.0320023999993,1031.0732184999997,1031.276959499999,1031.3842322,1035.0691939000008,1035.0691939000008,1035.0691939000008,['1'],[0.4301767999986623],,,,,,,,,,,,,,,,,,,,,,,,,,,,,,,,,,,,,,,,,,,,,,,,,,,,,,,,,,,,,,,,,,,,,,,,200003,A,2022-10-07_17h41.54.941,mfe_b,2022.2.4,239.8558945772221,
csv_files/a_halfV_trialTable_6.csv,img/rightArrow.png,img/leftArrow.png,img/leftArrow.png,7,0,right,"[0, 0]","[0.0385, 0]","[-0.0385, 0]",img/neutralC/CFD-AF-217-155-N.jpg,"[0.035, 0.035]",,,,,,,,,,,,,,,,0,3,3,5,0,26,26,27,,,,,,,,,,,,,,,,,,,3.6302605210420844,,,,,,,,,,0,,,,,,,,,,,,,,,1035.0691939000008,1035.0691939000008,1035.0691939000008,1035.0691939000008,1035.1151924999995,1035.3169608000007,1035.424051599999,1038.8120371000005,1038.8120371000005,1038.8120371000005,"['1', '8']","[0.41308959999878425, 1.7220863000002282]",,,,,,,,,,,,,,,,,,,,,,,,,,,,,,,,,,,,,,,,,,,,,,,,,,,,,,,,,,,,,,,,,,,,,,,,200003,A,2022-10-07_17h41.54.941,mfe_b,2022.2.4,239.8558945772221,
csv_files/a_halfV_trialTable_6.csv,img/leftArrow.png,img/leftArrow.png,img/leftArrow.png,6,1,left,"[0, 0]","[0.0385, 0]","[-0.0385, 0]",img/neutralC/CFD-MF-301-024-N.jpg,"[0.035, 0.035]",,,,,,,,,,,,,,,,0,3,3,5,0,27,27,14,,,,,,,,,,,,,,,,,,,3.786573146292585,,,,,,,,,,1,,,,,,,,,,,,,,,1038.8120371000005,1038.8120371000005,1038.8120371000005,1038.8120371000005,1038.8581400999992,1039.0599741000005,1039.1622212000002,1042.7145180000007,1042.7145180000007,1042.7145180000007,['1'],[0.5875075999992987],,,,,,,,,,,,,,,,,,,,,,,,,,,,,,,,,,,,,,,,,,,,,,,,,,,,,,,,,,,,,,,,,,,,,,,,200003,A,2022-10-07_17h41.54.941,mfe_b,2022.2.4,239.8558945772221,
csv_files/a_halfV_trialTable_6.csv,img/leftArrow.png,img/rightArrow.png,img/rightArrow.png,8,0,left,"[0, 0]","[0.0385, 0]","[-0.0385, 0]",img/neutralC/CFD-IM-707-105-N.jpg,"[0.035, 0.035]",,,,,,,,,,,,,,,,0,3,3,5,0,28,28,31,,,,,,,,,,,,,,,,,,,3.968937875751503,,,,,,,,,,1,,,,,,,,,,,,,,,1042.7145180000007,1042.7145180000007,1042.7145180000007,1042.7145180000007,1042.7529670000004,1042.9566725000004,1043.0655408999992,1046.7901175000006,1046.7901175000006,1046.7901175000006,['1'],[0.541904000001523],,,,,,,,,,,,,,,,,,,,,,,,,,,,,,,,,,,,,,,,,,,,,,,,,,,,,,,,,,,,,,,,,,,,,,,,200003,A,2022-10-07_17h41.54.941,mfe_b,2022.2.4,239.8558945772221,
csv_files/a_halfV_trialTable_6.csv,img/leftArrow.png,img/rightArrow.png,img/rightArrow.png,8,0,left,"[0, 0]","[0.0385, 0]","[-0.0385, 0]",img/neutralC/CFD-LM-219-295-N.jpg,"[0.035, 0.035]",,,,,,,,,,,,,,,,0,3,3,5,0,29,29,4,,,,,,,,,,,,,,,,,,,3.6492985971943885,,,,,,,,,,1,,,,,,,,,,,,,,,1046.7901175000006,1046.7901175000006,1046.7901175000006,1046.7901175000006,1046.8359041000003,1047.0395551000001,1047.1426083000006,1050.5584235000006,1050.5584235000006,1050.5584235000006,['1'],[0.5211470000012923],,,,,,,,,,,,,,,,,,,,,,,,,,,,,,,,,,,,,,,,,,,,,,,,,,,,,,,,,,,,,,,,,,,,,,,,200003,A,2022-10-07_17h41.54.941,mfe_b,2022.2.4,239.8558945772221,
csv_files/a_halfV_trialTable_6.csv,img/leftArrow.png,img/rightArrow.png,img/rightArrow.png,8,0,left,"[0, 0]","[0.0385, 0]","[-0.0385, 0]",img/neutralC/CFD-BF-030-002-N.jpg,"[0.035, 0.035]",,,,,,,,,,,,,,,,0,3,3,5,0,30,30,26,,,,,,,,,,,,,,,,,,,3.603206412825651,,,,,,,,,,1,,,,,,,,,,,,,,,1050.5584235000006,1050.5584235000006,1050.5584235000006,1050.5584235000006,1050.5937113,1050.7937970999992,1050.9087246,1054.2814987000002,1054.2814987000002,1054.2814987000002,['1'],[0.5286269999996875],,,,,,,,,,,,,,,,,,,,,,,,,,,,,,,,,,,,,,,,,,,,,,,,,,,,,,,,,,,,,,,,,,,,,,,,200003,A,2022-10-07_17h41.54.941,mfe_b,2022.2.4,239.8558945772221,
csv_files/a_halfV_trialTable_6.csv,img/leftArrow.png,img/leftArrow.png,img/leftArrow.png,6,1,left,"[0, 0]","[0.0385, 0]","[-0.0385, 0]",img/neutralC/CFD-LF-235-219-N.jpg,"[0.035, 0.035]",,,,,,,,,,,,,,,,0,3,3,5,0,31,31,8,,,,,,,,,,,,,,,,,,,3.867735470941884,,,,,,,,,,1,,,,,,,,,,,,,,,1054.2814987000002,1054.2814987000002,1054.2814987000002,1054.2814987000002,1054.3168757000003,1054.5202747000003,1054.6309908999992,1058.1503269000004,1058.1503269000004,1058.1503269000004,['1'],[0.734819499999503],,,,,,,,,,,,,,,,,,,,,,,,,,,,,,,,,,,,,,,,,,,,,,,,,,,,,,,,,,,,,,,,,,,,,,,,200003,A,2022-10-07_17h41.54.941,mfe_b,2022.2.4,239.8558945772221,
csv_files/a_halfV_trialTable_6.csv,,,,,,,,,,,,,,,,,,,,,,,,,,,0,3,3,5,,,,,,,,,,,,,,,,,,,,,,,,,,,,,,,,,,,,,,,,,,,,,,,,,,,,,,,,,,,,1,1058.1503269000004,1068.1458542,8,1.4700388000001112,,,,,,,,,,,,,,,,,,,,,,,,,,,,,,,,,,,,,,,,,,,,,,,,,,,,,,,,,,,,,,,,,,,200003,A,2022-10-07_17h41.54.941,mfe_b,2022.2.4,239.8558945772221,
csv_files/a_halfV_trialTable_1.csv,img/leftArrow.png,img/leftArrow.png,img/leftArrow.png,6,1,left,"[0, 0]","[0.0385, 0]","[-0.0385, 0]",img/neutralC/CFD-WM-216-061-N.jpg,"[0.035, 0.035]",,,,,,,,,,,,,,,,0,4,4,0,0,0,0,15,,,,,,,,,,,,,,,,,,1076.2027658000006,3.9128256513026054,,,,,,,,,,1,,,,,,,,,,,1069.6322299000003,1069.6322299000003,8,6.550358700000288,1078.3385498000007,1078.3385498000007,1078.3385498000007,1078.3385498000007,1078.3465529000005,1078.5521365000004,1078.6922833999997,1082.3760091999993,1082.3760091999993,1082.3760091999993,['1'],[0.8280972000011388],,,,,,,,,,,,,,,,,,,,,,,,,,,,,,,,,,,,,,,,,,,,,,,,,,,,,,,,,,,,,,,,,,,,,,,,200003,A,2022-10-07_17h41.54.941,mfe_b,2022.2.4,239.8558945772221,
csv_files/a_halfV_trialTable_1.csv,img/rightArrow.png,img/rightArrow.png,img/rightArrow.png,5,1,right,"[0, 0]","[0.0385, 0]","[-0.0385, 0]",img/neutralC/CFD-BM-216-088-N.jpg,"[0.035, 0.035]",,,,,,,,,,,,,,,,0,4,4,0,0,1,1,19,,,,,,,,,,,,,,,,,,,3.6302605210420844,,,,,,,,,,1,,,,,,,,,,,,,,,1082.3760091999993,1082.3760091999993,1082.3760091999993,1082.3760091999993,1082.4056395000007,1082.6145651000006,1082.7313290999991,1086.1487204000005,1086.1487204000005,1086.1487204000005,['8'],[0.3469252000013512],,,,,,,,,,,,,,,,,,,,,,,,,,,,,,,,,,,,,,,,,,,,,,,,,,,,,,,,,,,,,,,,,,,,,,,,200003,A,2022-10-07_17h41.54.941,mfe_b,2022.2.4,239.8558945772221,
