whichBlock,middleStim,leftStim,rightStim,stimNum,congruent,target,locationC,locationR,locationL,straightFace,imageSize,whichSurpriseBlock,firstTextA,firstLeft,firstRight,surp_csv_name,surpriseFaces,new,prac_block_loop.thisRepN,prac_block_loop.thisTrialN,prac_block_loop.thisN,prac_block_loop.thisIndex,prac_trial_loop.thisRepN,prac_trial_loop.thisTrialN,prac_trial_loop.thisN,prac_trial_loop.thisIndex,task_block_loop.thisRepN,task_block_loop.thisTrialN,task_block_loop.thisN,task_block_loop.thisIndex,task_trial_loop.thisRepN,task_trial_loop.thisTrialN,task_trial_loop.thisN,task_trial_loop.thisIndex,surprise_block_loop.thisRepN,surprise_block_loop.thisTrialN,surprise_block_loop.thisN,surprise_block_loop.thisIndex,trials.thisRepN,trials.thisTrialN,trials.thisN,trials.thisIndex,trials_2.thisRepN,trials_2.thisTrialN,trials_2.thisN,trials_2.thisIndex,prac_blockText.started,prac_reminder_text.started,prac_reminder_keyResp.started,prac_reminder_keyResp.keys,prac_reminder_keyResp.rt,initFixation_img.started,ISI,bigFace.started,cover_background_2.started,prac_stim_keyResp.started,prac_centerImg.started,prac_centerImg.stopped,cover_background_2.stopped,bigFace.stopped,prac_stim_keyResp.stopped,prac_stim_keyResp.keys,accuracy,prac_stim_keyResp.rt,prac_blockFeed_text.started,prac_pressContinue.started,prac_blockFeed_keyResp.started,prac_blockFeed_keyResp.keys,prac_blockFeed_keyResp.rt,ringBell_text.started,bellKey.started,bellKey.keys,bellKey.rt,task_blockText.started,task_blockReminders_keyResp.started,task_blockReminders_keyResp.keys,task_blockReminders_keyResp.rt,bigFace_2.started,cover_background.started,task_centerImg.started,task_fixImg.started,task1_stim_keyResp.started,task_centerImg.stopped,cover_background.stopped,bigFace_2.stopped,task_fixImg.stopped,task1_stim_keyResp.stopped,task1_stim_keyResp.keys,task1_stim_keyResp.rt,blockFeedCat,task_blockFeed_text.started,task_blockFeed_keyResp.started,task_blockFeed_keyResp.keys,task_blockFeed_keyResp.rt,ringBell_text_2.started,bellKey_2.started,bellKey_2.keys,bellKey_2.rt,errorNum_text.started,textbox_errorNum.started,errorN_key_resp.started,textbox_errorNum.text,errorN_key_resp.keys,errorN_key_resp.rt,errorPercent_text.started,textbox_errorPercent.started,errorN_key_resp_2.started,textbox_errorPercent.text,errorN_key_resp_2.keys,errorN_key_resp_2.rt,botherRate_text.started,textbox_botherRate.started,botherRate_key_resp.started,textbox_botherRate.text,botherRate_key_resp.keys,botherRate_key_resp.rt,ringBell_text_3.started,bellKey_3.started,bellKey_3.keys,bellKey_3.rt,instruct_surprise1.started,instruct_surp1_key_resp.keys,instruct_surp1_key_resp.rt,instruct_surprise1_5.started,prac_firstSlider_2.started,text_7.started,text_8.started,prac_firstSlider_2.response,prac_firstSlider_2.rt,instruct_surprise1_7.started,prac_firstSlider_3.started,text_9.started,text_10.started,prac_firstSlider_3.response,prac_firstSlider_3.rt,task_blockText_2.started,task_blockReminders_keyResp_2.started,task_blockReminders_keyResp_2.keys,task_blockReminders_keyResp_2.rt,polygon2.started,first_surpStimuliA1.started,fStimA1.started,firstStim_sliderA1.started,first_mouseA1.started,text.started,text_2.started,firstStim_sliderA1.response,firstStim_sliderA1.rt,first_mouseA1.x,first_mouseA1.y,first_mouseA1.leftButton,first_mouseA1.midButton,first_mouseA1.rightButton,first_mouseA1.time,thisISI3,polygon.started,polygon.stopped,polygon2.stopped,ringBell_text_4.started,bellKey_4.started,id,cb,date,expName,psychopyVersion,frameRate,
csv_files/a_halfV_trialTable_practice.csv,img/rightArrow.png,img/leftArrow.png,img/leftArrow.png,7,0,right,"[0, 0]","[0.0385, 0]","[-0.0385, 0]",img/neutralC/CFD-WF-201-156-N.jpg,"[0.035, 0.035]",,,,,,,,0,0,0,0,0,0,0,3,,,,,,,,,,,,,,,,,,,,,253.76018849998945,253.76018849998945,253.76018849998945,8,54.02732669998659,307.81761520000873,3.835671342685371,309.94346199999563,309.94346199999563,309.94346199999563,309.9518253999995,310.15197000000626,310.303158499999,313.9072606000118,313.9072606000118,None,0,,,,,,,,,,,,,,,,,,,,,,,,,,,,,,,,,,,,,,,,,,,,,,,,,,,,,,,,,,,,,,,,,,,,,,,,,,,,,,,,,,,,,,,,,,,,,,,,,,200007,A,2022-10-12_13h54.22.262,mfe_b,2022.2.4,240.60902961948977,
csv_files/a_halfV_trialTable_practice.csv,img/leftArrow.png,img/rightArrow.png,img/rightArrow.png,8,0,left,"[0, 0]","[0.0385, 0]","[-0.0385, 0]",img/neutralC/CFD-IM-635-010-N.jpg,"[0.035, 0.035]",,,,,,,,0,0,0,0,0,1,1,10,,,,,,,,,,,,,,,,,,,,,,,,,,,3.7404809619238475,313.9072606000118,313.9072606000118,313.9072606000118,313.9337798000197,314.1369391999906,314.26071449997835,317.7739969000104,317.7739969000104,None,0,,,,,,,,,,,,,,,,,,,,,,,,,,,,,,,,,,,,,,,,,,,,,,,,,,,,,,,,,,,,,,,,,,,,,,,,,,,,,,,,,,,,,,,,,,,,,,,,,,200007,A,2022-10-12_13h54.22.262,mfe_b,2022.2.4,240.60902961948977,
csv_files/a_halfV_trialTable_practice.csv,img/rightArrow.png,img/rightArrow.png,img/rightArrow.png,5,1,right,"[0, 0]","[0.0385, 0]","[-0.0385, 0]",img/neutralC/CFD-WF-203-229-N.jpg,"[0.035, 0.035]",,,,,,,,0,0,0,0,0,2,2,8,,,,,,,,,,,,,,,,,,,,,,,,,,,3.723446893787575,317.7739969000104,317.7739969000104,317.7739969000104,317.798676299979,317.9995006999816,318.12318649998633,321.62081779999426,321.62081779999426,['8'],1,[0.8989819000125863],,,,,,,,,,,,,,,,,,,,,,,,,,,,,,,,,,,,,,,,,,,,,,,,,,,,,,,,,,,,,,,,,,,,,,,,,,,,,,,,,,,,,,,,,,,,,,,,,200007,A,2022-10-12_13h54.22.262,mfe_b,2022.2.4,240.60902961948977,
csv_files/a_halfV_trialTable_practice.csv,img/rightArrow.png,img/leftArrow.png,img/leftArrow.png,7,0,right,"[0, 0]","[0.0385, 0]","[-0.0385, 0]",img/neutralC/CFD-WF-225-101-N.jpg,"[0.035, 0.035]",,,,,,,,0,0,0,0,0,3,3,16,,,,,,,,,,,,,,,,,,,,,,,,,,,3.882765531062124,321.62081779999426,321.62081779999426,321.62081779999426,321.6527473999886,321.8556863999693,321.97211229999084,325.6194136000122,325.6194136000122,['8'],1,[0.7127338999998756],,,,,,,,,,,,,,,,,,,,,,,,,,,,,,,,,,,,,,,,,,,,,,,,,,,,,,,,,,,,,,,,,,,,,,,,,,,,,,,,,,,,,,,,,,,,,,,,,200007,A,2022-10-12_13h54.22.262,mfe_b,2022.2.4,240.60902961948977,
csv_files/a_halfV_trialTable_practice.csv,img/rightArrow.png,img/leftArrow.png,img/leftArrow.png,7,0,right,"[0, 0]","[0.0385, 0]","[-0.0385, 0]",img/neutralC/CFD-IM-736-361-N.jpg,"[0.035, 0.035]",,,,,,,,0,0,0,0,0,4,4,0,,,,,,,,,,,,,,,,,,,,,,,,,,,3.7775551102204408,325.6194136000122,325.6194136000122,325.6194136000122,325.6640804000199,325.8668613000191,325.9723480999819,329.51836799999,329.51836799999,['8'],1,[0.6380922999815084],,,,,,,,,,,,,,,,,,,,,,,,,,,,,,,,,,,,,,,,,,,,,,,,,,,,,,,,,,,,,,,,,,,,,,,,,,,,,,,,,,,,,,,,,,,,,,,,,200007,A,2022-10-12_13h54.22.262,mfe_b,2022.2.4,240.60902961948977,
csv_files/a_halfV_trialTable_practice.csv,img/leftArrow.png,img/leftArrow.png,img/leftArrow.png,6,1,left,"[0, 0]","[0.0385, 0]","[-0.0385, 0]",img/neutralC/CFD-LM-228-188-N.jpg,"[0.035, 0.035]",,,,,,,,0,0,0,0,0,5,5,1,,,,,,,,,,,,,,,,,,,,,,,,,,,3.5140280561122244,329.51836799999,329.51836799999,329.51836799999,329.55061109998496,329.75082289997954,329.86887040000875,333.1618826999911,333.1618826999911,['1'],1,[0.47123050002846867],,,,,,,,,,,,,,,,,,,,,,,,,,,,,,,,,,,,,,,,,,,,,,,,,,,,,,,,,,,,,,,,,,,,,,,,,,,,,,,,,,,,,,,,,,,,,,,,,200007,A,2022-10-12_13h54.22.262,mfe_b,2022.2.4,240.60902961948977,
csv_files/a_halfV_trialTable_practice.csv,img/leftArrow.png,img/rightArrow.png,img/rightArrow.png,8,0,left,"[0, 0]","[0.0385, 0]","[-0.0385, 0]",img/neutralC/CFD-BF-017-003-N.jpg,"[0.035, 0.035]",,,,,,,,0,0,0,0,0,6,6,19,,,,,,,,,,,,,,,,,,,,,,,,,,,3.741482965931864,333.1618826999911,333.1618826999911,333.1618826999911,333.18805529997917,333.39097850001417,333.5111322000157,337.030797799991,337.030797799991,['1'],1,[0.5195193999679759],,,,,,,,,,,,,,,,,,,,,,,,,,,,,,,,,,,,,,,,,,,,,,,,,,,,,,,,,,,,,,,,,,,,,,,,,,,,,,,,,,,,,,,,,,,,,,,,,200007,A,2022-10-12_13h54.22.262,mfe_b,2022.2.4,240.60902961948977,
csv_files/a_halfV_trialTable_practice.csv,img/leftArrow.png,img/leftArrow.png,img/leftArrow.png,6,1,left,"[0, 0]","[0.0385, 0]","[-0.0385, 0]",img/neutralC/CFD-IM-607-018-N.jpg,"[0.035, 0.035]",,,,,,,,0,0,0,0,0,7,7,17,,,,,,,,,,,,,,,,,,,,,,,,,,,3.8777555110220443,337.030797799991,337.030797799991,337.030797799991,337.06094210001174,337.2632566000102,337.3856315999874,341.0192558999988,341.0192558999988,['1'],1,[0.49797800002852455],,,,,,,,,,,,,,,,,,,,,,,,,,,,,,,,,,,,,,,,,,,,,,,,,,,,,,,,,,,,,,,,,,,,,,,,,,,,,,,,,,,,,,,,,,,,,,,,,200007,A,2022-10-12_13h54.22.262,mfe_b,2022.2.4,240.60902961948977,
csv_files/a_halfV_trialTable_practice.csv,img/leftArrow.png,img/rightArrow.png,img/rightArrow.png,8,0,left,"[0, 0]","[0.0385, 0]","[-0.0385, 0]",img/neutralC/CFD-BM-029-024-N.jpg,"[0.035, 0.035]",,,,,,,,0,0,0,0,0,8,8,9,,,,,,,,,,,,,,,,,,,,,,,,,,,3.7274549098196395,341.0192558999988,341.0192558999988,341.0192558999988,341.0590873999754,341.2605439000181,341.37317400000757,344.86942689999705,344.86942689999705,['1'],1,[0.5313507000100799],,,,,,,,,,,,,,,,,,,,,,,,,,,,,,,,,,,,,,,,,,,,,,,,,,,,,,,,,,,,,,,,,,,,,,,,,,,,,,,,,,,,,,,,,,,,,,,,,200007,A,2022-10-12_13h54.22.262,mfe_b,2022.2.4,240.60902961948977,
csv_files/a_halfV_trialTable_practice.csv,img/rightArrow.png,img/rightArrow.png,img/rightArrow.png,5,1,right,"[0, 0]","[0.0385, 0]","[-0.0385, 0]",img/neutralC/CFD-AM-237-154-N.jpg,"[0.035, 0.035]",,,,,,,,0,0,0,0,0,9,9,14,,,,,,,,,,,,,,,,,,,,,,,,,,,3.9498997995991987,344.86942689999705,344.86942689999705,344.86942689999705,344.9003588000196,345.1058747000061,345.2192961999681,348.93695629999274,348.93695629999274,['8'],1,[0.6821275999536738],,,,,,,,,,,,,,,,,,,,,,,,,,,,,,,,,,,,,,,,,,,,,,,,,,,,,,,,,,,,,,,,,,,,,,,,,,,,,,,,,,,,,,,,,,,,,,,,,200007,A,2022-10-12_13h54.22.262,mfe_b,2022.2.4,240.60902961948977,
csv_files/a_halfV_trialTable_practice.csv,img/rightArrow.png,img/leftArrow.png,img/leftArrow.png,7,0,right,"[0, 0]","[0.0385, 0]","[-0.0385, 0]",img/neutralC/CFD-AF-205-155-N.jpg,"[0.035, 0.035]",,,,,,,,0,0,0,0,0,10,10,7,,,,,,,,,,,,,,,,,,,,,,,,,,,3.8196392785571143,348.93695629999274,348.93695629999274,348.93695629999274,348.97282169997925,349.1780484999763,349.2887842999771,352.8818944999948,352.8818944999948,['8'],1,[0.577640599978622],,,,,,,,,,,,,,,,,,,,,,,,,,,,,,,,,,,,,,,,,,,,,,,,,,,,,,,,,,,,,,,,,,,,,,,,,,,,,,,,,,,,,,,,,,,,,,,,,200007,A,2022-10-12_13h54.22.262,mfe_b,2022.2.4,240.60902961948977,
csv_files/a_halfV_trialTable_practice.csv,img/leftArrow.png,img/leftArrow.png,img/leftArrow.png,6,1,left,"[0, 0]","[0.0385, 0]","[-0.0385, 0]",img/neutralC/CFD-BM-015-015-N.jpg,"[0.035, 0.035]",,,,,,,,0,0,0,0,0,11,11,5,,,,,,,,,,,,,,,,,,,,,,,,,,,3.963927855711423,352.8818944999948,352.8818944999948,352.8818944999948,352.91319589997875,353.1159696999821,353.23449980001897,356.9757746999967,356.9757746999967,['1'],1,[0.524668300000485],,,,,,,,,,,,,,,,,,,,,,,,,,,,,,,,,,,,,,,,,,,,,,,,,,,,,,,,,,,,,,,,,,,,,,,,,,,,,,,,,,,,,,,,,,,,,,,,,200007,A,2022-10-12_13h54.22.262,mfe_b,2022.2.4,240.60902961948977,
csv_files/a_halfV_trialTable_practice.csv,img/leftArrow.png,img/rightArrow.png,img/rightArrow.png,8,0,left,"[0, 0]","[0.0385, 0]","[-0.0385, 0]",img/neutralC/CFD-BF-007-001-N.jpg,"[0.035, 0.035]",,,,,,,,0,0,0,0,0,12,12,2,,,,,,,,,,,,,,,,,,,,,,,,,,,3.5761523046092183,356.9757746999967,356.9757746999967,356.9757746999967,356.99733729998115,357.198155399994,357.33144300000276,360.6948237000033,360.6948237000033,['1'],1,[0.5410341999959201],,,,,,,,,,,,,,,,,,,,,,,,,,,,,,,,,,,,,,,,,,,,,,,,,,,,,,,,,,,,,,,,,,,,,,,,,,,,,,,,,,,,,,,,,,,,,,,,,200007,A,2022-10-12_13h54.22.262,mfe_b,2022.2.4,240.60902961948977,
csv_files/a_halfV_trialTable_practice.csv,img/rightArrow.png,img/rightArrow.png,img/rightArrow.png,5,1,right,"[0, 0]","[0.0385, 0]","[-0.0385, 0]",img/neutralC/CFD-IM-615-167-N.jpg,"[0.035, 0.035]",,,,,,,,0,0,0,0,0,13,13,6,,,,,,,,,,,,,,,,,,,,,,,,,,,3.5631262525050102,360.6948237000033,360.6948237000033,360.6948237000033,360.70761350000976,360.9075115000014,361.0442404000205,364.3845486000064,364.3845486000064,['8'],1,[0.6289097999688238],,,,,,,,,,,,,,,,,,,,,,,,,,,,,,,,,,,,,,,,,,,,,,,,,,,,,,,,,,,,,,,,,,,,,,,,,,,,,,,,,,,,,,,,,,,,,,,,,200007,A,2022-10-12_13h54.22.262,mfe_b,2022.2.4,240.60902961948977,
csv_files/a_halfV_trialTable_practice.csv,img/rightArrow.png,img/rightArrow.png,img/rightArrow.png,5,1,right,"[0, 0]","[0.0385, 0]","[-0.0385, 0]",img/neutralC/CFD-BM-231-155-N.jpg,"[0.035, 0.035]",,,,,,,,0,0,0,0,0,14,14,12,,,,,,,,,,,,,,,,,,,,,,,,,,,3.650300601202405,364.3845486000064,364.3845486000064,364.3845486000064,364.40664910001215,364.6083700999734,364.7379312000121,368.152032300015,368.152032300015,['8'],1,[0.43286679999437183],,,,,,,,,,,,,,,,,,,,,,,,,,,,,,,,,,,,,,,,,,,,,,,,,,,,,,,,,,,,,,,,,,,,,,,,,,,,,,,,,,,,,,,,,,,,,,,,,200007,A,2022-10-12_13h54.22.262,mfe_b,2022.2.4,240.60902961948977,
csv_files/a_halfV_trialTable_practice.csv,img/leftArrow.png,img/leftArrow.png,img/leftArrow.png,6,1,left,"[0, 0]","[0.0385, 0]","[-0.0385, 0]",img/neutralC/CFD-IM-632-097-N.jpg,"[0.035, 0.035]",,,,,,,,0,0,0,0,0,15,15,4,,,,,,,,,,,,,,,,,,,,,,,,,,,3.9448897795591185,368.152032300015,368.152032300015,368.152032300015,368.1879736999981,368.38794779998716,368.5056113000028,372.2232564999722,372.2232564999722,['1'],1,[0.4371564000030048],,,,,,,,,,,,,,,,,,,,,,,,,,,,,,,,,,,,,,,,,,,,,,,,,,,,,,,,,,,,,,,,,,,,,,,,,,,,,,,,,,,,,,,,,,,,,,,,,200007,A,2022-10-12_13h54.22.262,mfe_b,2022.2.4,240.60902961948977,
csv_files/a_halfV_trialTable_practice.csv,img/rightArrow.png,img/rightArrow.png,img/rightArrow.png,5,1,right,"[0, 0]","[0.0385, 0]","[-0.0385, 0]",img/neutralC/CFD-BF-005-001-N.jpg,"[0.035, 0.035]",,,,,,,,0,0,0,0,0,16,16,13,,,,,,,,,,,,,,,,,,,,,,,,,,,3.653306613226453,372.2232564999722,372.2232564999722,372.2232564999722,372.2504953999887,372.45359859999735,372.57343049999326,375.98969760001637,375.98969760001637,['8'],1,[0.4524264999781735],,,,,,,,,,,,,,,,,,,,,,,,,,,,,,,,,,,,,,,,,,,,,,,,,,,,,,,,,,,,,,,,,,,,,,,,,,,,,,,,,,,,,,,,,,,,,,,,,200007,A,2022-10-12_13h54.22.262,mfe_b,2022.2.4,240.60902961948977,
csv_files/a_halfV_trialTable_practice.csv,img/rightArrow.png,img/leftArrow.png,img/leftArrow.png,7,0,right,"[0, 0]","[0.0385, 0]","[-0.0385, 0]",img/neutralC/CFD-AF-218-157-N.jpg,"[0.035, 0.035]",,,,,,,,0,0,0,0,0,17,17,11,,,,,,,,,,,,,,,,,,,,,,,,,,,3.6392785571142285,375.98969760001637,375.98969760001637,375.98969760001637,376.0264041000046,376.23041269998066,376.33929949998856,379.73869009997,379.73869009997,['8'],1,[0.574007100018207],,,,,,,,,,,,,,,,,,,,,,,,,,,,,,,,,,,,,,,,,,,,,,,,,,,,,,,,,,,,,,,,,,,,,,,,,,,,,,,,,,,,,,,,,,,,,,,,,200007,A,2022-10-12_13h54.22.262,mfe_b,2022.2.4,240.60902961948977,
csv_files/a_halfV_trialTable_practice.csv,img/leftArrow.png,img/leftArrow.png,img/leftArrow.png,6,1,left,"[0, 0]","[0.0385, 0]","[-0.0385, 0]",img/neutralC/CFD-BM-004-002-N.jpg,"[0.035, 0.035]",,,,,,,,0,0,0,0,0,18,18,18,,,,,,,,,,,,,,,,,,,,,,,,,,,3.6482965931863727,379.73869009997,379.73869009997,379.73869009997,379.7847041999921,379.9866209999891,380.0980314000044,383.5003069000086,383.5003069000086,['1'],1,[0.47100510000018403],,,,,,,,,,,,,,,,,,,,,,,,,,,,,,,,,,,,,,,,,,,,,,,,,,,,,,,,,,,,,,,,,,,,,,,,,,,,,,,,,,,,,,,,,,,,,,,,,200007,A,2022-10-12_13h54.22.262,mfe_b,2022.2.4,240.60902961948977,
csv_files/a_halfV_trialTable_practice.csv,img/leftArrow.png,img/rightArrow.png,img/rightArrow.png,8,0,left,"[0, 0]","[0.0385, 0]","[-0.0385, 0]",img/neutralC/CFD-BF-213-188-N.jpg,"[0.035, 0.035]",,,,,,,,0,0,0,0,0,19,19,15,,,,,,,,,,,,,,,,,,,,,,,,,,,3.8607214428857715,383.5003069000086,383.5003069000086,383.5003069000086,383.539185200003,383.74420830002055,383.84959190001246,387.3647308999789,387.3647308999789,['1'],1,[0.5371910000103526],,,,,,,,,,,,,,,,,,,,,,,,,,,,,,,,,,,,,,,,,,,,,,,,,,,,,,,,,,,,,,,,,,,,,,,,,,,,,,,,,,,,,,,,,,,,,,,,,200007,A,2022-10-12_13h54.22.262,mfe_b,2022.2.4,240.60902961948977,
csv_files/a_halfV_trialTable_practice.csv,,,,,,,,,,,,,,,,,,,0,0,0,0,,,,,,,,,,,,,,,,,,,,,,,,,,,,,,,,,,,,,,,,,,,387.3647308999789,387.3647308999789,387.3647308999789,8,7.112397400022019,,,,,,,,,,,,,,,,,,,,,,,,,,,,,,,,,,,,,,,,,,,,,,,,,,,,,,,,,,,,,,,,,,,,,,,,,,,,,,,,,,,,,,,,,,,,200007,A,2022-10-12_13h54.22.262,mfe_b,2022.2.4,240.60902961948977,
,,,,,,,,,,,,,,,,,,,,,,,,,,,,,,,,,,,,,,,,,,,,,,,,,,,,,,,,,,,,,,,,,,,,,,394.4866917000036,394.4866917000036,c,5.059732599998824,,,,,,,,,,,,,,,,,,,,,,,,,,,,,,,,,,,,,,,,,,,,,,,,,,,,,,,,,,,,,,,,,,,,,,,,,,,,,,,,,,,,,,,,200007,A,2022-10-12_13h54.22.262,mfe_b,2022.2.4,240.60902961948977,
csv_files/a_halfV_trialTable_10.csv,img/leftArrow.png,img/rightArrow.png,img/rightArrow.png,8,0,left,"[0, 0]","[0.0385, 0]","[-0.0385, 0]",img/neutralC/CFD-BF-206-143-N.jpg,"[0.035, 0.035]",,,,,,,,,,,,,,,,0,0,0,9,0,0,0,16,,,,,,,,,,,,,,,,,,625.2059927000082,3.6623246492985975,,,,,,,,,,1,,,,,,,,,,,399.57123990001855,399.57123990001855,8,225.61460349999834,627.3670608999673,627.3670608999673,627.3670608999673,627.3670608999673,627.3670608999673,627.5694512000191,627.7198555999785,631.1383492000168,631.1383492000168,631.1383492000168,['1'],[0.8601731000235304],,,,,,,,,,,,,,,,,,,,,,,,,,,,,,,,,,,,,,,,,,,,,,,,,,,,,,,,,,,,,,,,,,,,,,,,200007,A,2022-10-12_13h54.22.262,mfe_b,2022.2.4,240.60902961948977,
csv_files/a_halfV_trialTable_10.csv,img/leftArrow.png,img/rightArrow.png,img/rightArrow.png,8,0,left,"[0, 0]","[0.0385, 0]","[-0.0385, 0]",img/neutralC/CFD-BM-206-114-N.jpg,"[0.035, 0.035]",,,,,,,,,,,,,,,,0,0,0,9,0,1,1,31,,,,,,,,,,,,,,,,,,,3.968937875751503,,,,,,,,,,1,,,,,,,,,,,,,,,631.1383492000168,631.1383492000168,631.1831839000224,631.1383492000168,631.1383492000168,631.3836235000053,631.4896538999747,635.2231577999773,635.2231577999773,635.2231577999773,['1'],[0.49577390000922605],,,,,,,,,,,,,,,,,,,,,,,,,,,,,,,,,,,,,,,,,,,,,,,,,,,,,,,,,,,,,,,,,,,,,,,,200007,A,2022-10-12_13h54.22.262,mfe_b,2022.2.4,240.60902961948977,
csv_files/a_halfV_trialTable_10.csv,img/rightArrow.png,img/leftArrow.png,img/leftArrow.png,7,0,right,"[0, 0]","[0.0385, 0]","[-0.0385, 0]",img/neutralC/CFD-AM-220-134-N.jpg,"[0.035, 0.035]",,,,,,,,,,,,,,,,0,0,0,9,0,2,2,24,,,,,,,,,,,,,,,,,,,3.7675350701402803,,,,,,,,,,1,,,,,,,,,,,,,,,635.2231577999773,635.2231577999773,635.2588464000146,635.2231577999773,635.2231577999773,635.4616069999756,635.5774218000006,639.1118569999817,639.1118569999817,639.1118569999817,['8'],[0.5168152000405826],,,,,,,,,,,,,,,,,,,,,,,,,,,,,,,,,,,,,,,,,,,,,,,,,,,,,,,,,,,,,,,,,,,,,,,,200007,A,2022-10-12_13h54.22.262,mfe_b,2022.2.4,240.60902961948977,
csv_files/a_halfV_trialTable_10.csv,img/rightArrow.png,img/rightArrow.png,img/rightArrow.png,5,1,right,"[0, 0]","[0.0385, 0]","[-0.0385, 0]",img/neutralC/CFD-LF-207-198-N.jpg,"[0.035, 0.035]",,,,,,,,,,,,,,,,0,0,0,9,0,3,3,25,,,,,,,,,,,,,,,,,,,3.6843687374749496,,,,,,,,,,1,,,,,,,,,,,,,,,639.1118569999817,639.1118569999817,639.1424429999897,639.1118569999817,639.1118569999817,639.3433769000112,639.4630794000113,642.9190515999799,642.9190515999799,642.9190515999799,['8'],[0.6121369000175036],,,,,,,,,,,,,,,,,,,,,,,,,,,,,,,,,,,,,,,,,,,,,,,,,,,,,,,,,,,,,,,,,,,,,,,,200007,A,2022-10-12_13h54.22.262,mfe_b,2022.2.4,240.60902961948977,
csv_files/a_halfV_trialTable_10.csv,img/leftArrow.png,img/rightArrow.png,img/rightArrow.png,8,0,left,"[0, 0]","[0.0385, 0]","[-0.0385, 0]",img/neutralC/CFD-IM-724-010-N.jpg,"[0.035, 0.035]",,,,,,,,,,,,,,,,0,0,0,9,0,4,4,9,,,,,,,,,,,,,,,,,,,3.6442885771543088,,,,,,,,,,1,,,,,,,,,,,,,,,642.9190515999799,642.9190515999799,642.945301699976,642.9190515999799,642.9190515999799,643.1483443999896,643.2679813000141,646.6713202999672,646.6713202999672,646.6713202999672,['1'],[0.36544409999623895],,,,,,,,,,,,,,,,,,,,,,,,,,,,,,,,,,,,,,,,,,,,,,,,,,,,,,,,,,,,,,,,,,,,,,,,200007,A,2022-10-12_13h54.22.262,mfe_b,2022.2.4,240.60902961948977,
csv_files/a_halfV_trialTable_10.csv,img/leftArrow.png,img/rightArrow.png,img/rightArrow.png,8,0,left,"[0, 0]","[0.0385, 0]","[-0.0385, 0]",img/neutralC/CFD-AM-225-102-N.jpg,"[0.035, 0.035]",,,,,,,,,,,,,,,,0,0,0,9,0,5,5,19,,,,,,,,,,,,,,,,,,,3.7965931863727453,,,,,,,,,,1,,,,,,,,,,,,,,,646.6713202999672,646.6713202999672,646.7153547999915,646.6713202999672,646.6713202999672,646.9155659999815,647.0231697999989,650.5681103999959,650.5681103999959,650.5681103999959,['1'],[0.495978599996306],,,,,,,,,,,,,,,,,,,,,,,,,,,,,,,,,,,,,,,,,,,,,,,,,,,,,,,,,,,,,,,,,,,,,,,,200007,A,2022-10-12_13h54.22.262,mfe_b,2022.2.4,240.60902961948977,
csv_files/a_halfV_trialTable_10.csv,img/leftArrow.png,img/leftArrow.png,img/leftArrow.png,6,1,left,"[0, 0]","[0.0385, 0]","[-0.0385, 0]",img/neutralC/CFD-LF-236-221-N.jpg,"[0.035, 0.035]",,,,,,,,,,,,,,,,0,0,0,9,0,6,6,20,,,,,,,,,,,,,,,,,,,3.875751503006012,,,,,,,,,,1,,,,,,,,,,,,,,,650.5681103999959,650.5681103999959,650.6186904999777,650.5681103999959,650.5681103999959,650.8182176999981,650.9183211000054,654.5603246999672,654.5603246999672,654.5603246999672,['1'],[0.511653000023216],,,,,,,,,,,,,,,,,,,,,,,,,,,,,,,,,,,,,,,,,,,,,,,,,,,,,,,,,,,,,,,,,,,,,,,,200007,A,2022-10-12_13h54.22.262,mfe_b,2022.2.4,240.60902961948977,
csv_files/a_halfV_trialTable_10.csv,img/leftArrow.png,img/leftArrow.png,img/leftArrow.png,6,1,left,"[0, 0]","[0.0385, 0]","[-0.0385, 0]",img/neutralC/CFD-WF-251-014-N.jpg,"[0.035, 0.035]",,,,,,,,,,,,,,,,0,0,0,9,0,7,7,21,,,,,,,,,,,,,,,,,,,3.756513026052104,,,,,,,,,,1,,,,,,,,,,,,,,,654.5603246999672,654.5603246999672,654.5959142000065,654.5603246999672,654.5603246999672,654.8037656000233,654.9113749999669,658.4266990000033,658.4266990000033,658.4266990000033,['1'],[0.3953046999522485],,,,,,,,,,,,,,,,,,,,,,,,,,,,,,,,,,,,,,,,,,,,,,,,,,,,,,,,,,,,,,,,,,,,,,,,200007,A,2022-10-12_13h54.22.262,mfe_b,2022.2.4,240.60902961948977,
csv_files/a_halfV_trialTable_10.csv,img/leftArrow.png,img/rightArrow.png,img/rightArrow.png,8,0,left,"[0, 0]","[0.0385, 0]","[-0.0385, 0]",img/neutralC/CFD-MM-308-001-N.jpg,"[0.035, 0.035]",,,,,,,,,,,,,,,,0,0,0,9,0,8,8,13,,,,,,,,,,,,,,,,,,,3.817635270541082,,,,,,,,,,1,,,,,,,,,,,,,,,658.4266990000033,658.4266990000033,658.4713645000011,658.4266990000033,658.4266990000033,658.6726407000097,658.7844001000049,662.3603786000167,662.3603786000167,662.3603786000167,['1'],[0.48150140000507236],,,,,,,,,,,,,,,,,,,,,,,,,,,,,,,,,,,,,,,,,,,,,,,,,,,,,,,,,,,,,,,,,,,,,,,,200007,A,2022-10-12_13h54.22.262,mfe_b,2022.2.4,240.60902961948977,
csv_files/a_halfV_trialTable_10.csv,img/rightArrow.png,img/rightArrow.png,img/rightArrow.png,5,1,right,"[0, 0]","[0.0385, 0]","[-0.0385, 0]",img/neutralC/CFD-WM-040-022-N.jpg,"[0.035, 0.035]",,,,,,,,,,,,,,,,0,0,0,9,0,9,9,6,,,,,,,,,,,,,,,,,,,3.840681362725451,,,,,,,,,,1,,,,,,,,,,,,,,,662.3603786000167,662.3603786000167,662.4011948999832,662.3603786000167,662.3603786000167,662.6025478999945,662.7112189999898,666.3127116999822,666.3127116999822,666.3127116999822,['8'],[0.455768599989824],,,,,,,,,,,,,,,,,,,,,,,,,,,,,,,,,,,,,,,,,,,,,,,,,,,,,,,,,,,,,,,,,,,,,,,,200007,A,2022-10-12_13h54.22.262,mfe_b,2022.2.4,240.60902961948977,
csv_files/a_halfV_trialTable_10.csv,img/rightArrow.png,img/rightArrow.png,img/rightArrow.png,5,1,right,"[0, 0]","[0.0385, 0]","[-0.0385, 0]",img/neutralC/CFD-WM-234-118-N.jpg,"[0.035, 0.035]",,,,,,,,,,,,,,,,0,0,0,9,0,10,10,26,,,,,,,,,,,,,,,,,,,3.910821643286573,,,,,,,,,,1,,,,,,,,,,,,,,,666.3127116999822,666.3127116999822,666.3522452000179,666.3127116999822,666.3127116999822,666.5545366000151,666.6629788000137,670.3335430999869,670.3335430999869,670.3335430999869,['8'],[0.5290964000159875],,,,,,,,,,,,,,,,,,,,,,,,,,,,,,,,,,,,,,,,,,,,,,,,,,,,,,,,,,,,,,,,,,,,,,,,200007,A,2022-10-12_13h54.22.262,mfe_b,2022.2.4,240.60902961948977,
csv_files/a_halfV_trialTable_10.csv,img/rightArrow.png,img/leftArrow.png,img/leftArrow.png,7,0,right,"[0, 0]","[0.0385, 0]","[-0.0385, 0]",img/neutralC/CFD-AM-211-052-N.jpg,"[0.035, 0.035]",,,,,,,,,,,,,,,,0,0,0,9,0,11,11,27,,,,,,,,,,,,,,,,,,,3.7184368737474953,,,,,,,,,,1,,,,,,,,,,,,,,,670.3335430999869,670.3335430999869,670.385707199981,670.3335430999869,670.3335430999869,670.5900177999865,670.6845995999756,674.1711119000101,674.1711119000101,674.1711119000101,['8'],[0.5584972000215203],,,,,,,,,,,,,,,,,,,,,,,,,,,,,,,,,,,,,,,,,,,,,,,,,,,,,,,,,,,,,,,,,,,,,,,,200007,A,2022-10-12_13h54.22.262,mfe_b,2022.2.4,240.60902961948977,
csv_files/a_halfV_trialTable_10.csv,img/leftArrow.png,img/leftArrow.png,img/leftArrow.png,6,1,left,"[0, 0]","[0.0385, 0]","[-0.0385, 0]",img/neutralC/CFD-WF-223-133-N.jpg,"[0.035, 0.035]",,,,,,,,,,,,,,,,0,0,0,9,0,12,12,23,,,,,,,,,,,,,,,,,,,3.879759519038076,,,,,,,,,,1,,,,,,,,,,,,,,,674.1711119000101,674.1711119000101,674.2058381999959,674.1711119000101,674.1711119000101,674.4051806000061,674.5214442000142,678.1625453999732,678.1625453999732,678.1625453999732,['1'],[0.6105909000034444],,,,,,,,,,,,,,,,,,,,,,,,,,,,,,,,,,,,,,,,,,,,,,,,,,,,,,,,,,,,,,,,,,,,,,,,200007,A,2022-10-12_13h54.22.262,mfe_b,2022.2.4,240.60902961948977,
csv_files/a_halfV_trialTable_10.csv,img/leftArrow.png,img/leftArrow.png,img/leftArrow.png,6,1,left,"[0, 0]","[0.0385, 0]","[-0.0385, 0]",img/neutralC/CFD-AF-219-106-N.jpg,"[0.035, 0.035]",,,,,,,,,,,,,,,,0,0,0,9,0,13,13,15,,,,,,,,,,,,,,,,,,,3.6262525050100196,,,,,,,,,,1,,,,,,,,,,,,,,,678.1625453999732,678.1625453999732,678.2035049999831,678.1625453999732,678.1625453999732,678.4058632999659,678.5151593000046,681.8881535999826,681.8881535999826,681.8881535999826,['1'],[0.46285460004583],,,,,,,,,,,,,,,,,,,,,,,,,,,,,,,,,,,,,,,,,,,,,,,,,,,,,,,,,,,,,,,,,,,,,,,,200007,A,2022-10-12_13h54.22.262,mfe_b,2022.2.4,240.60902961948977,
csv_files/a_halfV_trialTable_10.csv,img/rightArrow.png,img/leftArrow.png,img/leftArrow.png,7,0,right,"[0, 0]","[0.0385, 0]","[-0.0385, 0]",img/neutralC/CFD-WM-255-219-N.jpg,"[0.035, 0.035]",,,,,,,,,,,,,,,,0,0,0,9,0,14,14,0,,,,,,,,,,,,,,,,,,,3.9919839679358717,,,,,,,,,,1,,,,,,,,,,,,,,,681.8881535999826,681.8881535999826,681.9413679999998,681.8881535999826,681.8881535999826,682.1436616000137,682.2417954999837,685.9881367000053,685.9881367000053,685.9881367000053,['8'],[0.49607839999953285],,,,,,,,,,,,,,,,,,,,,,,,,,,,,,,,,,,,,,,,,,,,,,,,,,,,,,,,,,,,,,,,,,,,,,,,200007,A,2022-10-12_13h54.22.262,mfe_b,2022.2.4,240.60902961948977,
csv_files/a_halfV_trialTable_10.csv,img/rightArrow.png,img/rightArrow.png,img/rightArrow.png,5,1,right,"[0, 0]","[0.0385, 0]","[-0.0385, 0]",img/neutralC/CFD-IM-656-273-N.jpg,"[0.035, 0.035]",,,,,,,,,,,,,,,,0,0,0,9,0,15,15,2,,,,,,,,,,,,,,,,,,,3.808617234468938,,,,,,,,,,1,,,,,,,,,,,,,,,685.9881367000053,685.9881367000053,686.0336809,685.9881367000053,685.9881367000053,686.2373847999843,686.3436419999925,689.9013032999937,689.9013032999937,689.9013032999937,['8'],[0.5098428999772295],,,,,,,,,,,,,,,,,,,,,,,,,,,,,,,,,,,,,,,,,,,,,,,,,,,,,,,,,,,,,,,,,,,,,,,,200007,A,2022-10-12_13h54.22.262,mfe_b,2022.2.4,240.60902961948977,
csv_files/a_halfV_trialTable_10.csv,img/rightArrow.png,img/leftArrow.png,img/leftArrow.png,7,0,right,"[0, 0]","[0.0385, 0]","[-0.0385, 0]",img/neutralC/CFD-AM-235-241-N.jpg,"[0.035, 0.035]",,,,,,,,,,,,,,,,0,0,0,9,0,16,16,29,,,,,,,,,,,,,,,,,,,3.947895791583166,,,,,,,,,,1,,,,,,,,,,,,,,,689.9013032999937,689.9013032999937,689.949315899983,689.9013032999937,689.9013032999937,690.1509875999764,690.2545294999727,693.9795841000159,693.9795841000159,693.9795841000159,['8'],[0.5353496000170708],,,,,,,,,,,,,,,,,,,,,,,,,,,,,,,,,,,,,,,,,,,,,,,,,,,,,,,,,,,,,,,,,,,,,,,,200007,A,2022-10-12_13h54.22.262,mfe_b,2022.2.4,240.60902961948977,
csv_files/a_halfV_trialTable_10.csv,img/rightArrow.png,img/leftArrow.png,img/leftArrow.png,7,0,right,"[0, 0]","[0.0385, 0]","[-0.0385, 0]",img/neutralC/CFD-BM-249-235-N.jpg,"[0.035, 0.035]",,,,,,,,,,,,,,,,0,0,0,9,0,17,17,4,,,,,,,,,,,,,,,,,,,3.997995991983968,,,,,,,,,,1,,,,,,,,,,,,,,,693.9795841000159,693.9795841000159,694.0051735999878,693.9795841000159,693.9795841000159,694.2074992000125,694.3367098000017,698.0954512999742,698.0954512999742,698.0954512999742,['8'],[0.5480965999886394],,,,,,,,,,,,,,,,,,,,,,,,,,,,,,,,,,,,,,,,,,,,,,,,,,,,,,,,,,,,,,,,,,,,,,,,200007,A,2022-10-12_13h54.22.262,mfe_b,2022.2.4,240.60902961948977,
csv_files/a_halfV_trialTable_10.csv,img/rightArrow.png,img/rightArrow.png,img/rightArrow.png,5,1,right,"[0, 0]","[0.0385, 0]","[-0.0385, 0]",img/neutralC/CFD-AF-236-145-N.jpg,"[0.035, 0.035]",,,,,,,,,,,,,,,,0,0,0,9,0,18,18,17,,,,,,,,,,,,,,,,,,,3.965931863727455,,,,,,,,,,1,,,,,,,,,,,,,,,698.0954512999742,698.0954512999742,698.131873700011,698.0954512999742,698.0954512999742,698.3328015999869,698.4461184999673,702.1720925999689,702.1720925999689,702.1720925999689,['8'],[0.5099802000331692],,,,,,,,,,,,,,,,,,,,,,,,,,,,,,,,,,,,,,,,,,,,,,,,,,,,,,,,,,,,,,,,,,,,,,,,200007,A,2022-10-12_13h54.22.262,mfe_b,2022.2.4,240.60902961948977,
csv_files/a_halfV_trialTable_10.csv,img/rightArrow.png,img/leftArrow.png,img/leftArrow.png,7,0,right,"[0, 0]","[0.0385, 0]","[-0.0385, 0]",img/neutralC/CFD-IF-729-393-N.jpg,"[0.035, 0.035]",,,,,,,,,,,,,,,,0,0,0,9,0,19,19,3,,,,,,,,,,,,,,,,,,,3.9789579158316633,,,,,,,,,,1,,,,,,,,,,,,,,,702.1720925999689,702.1720925999689,702.2156618000008,702.1720925999689,702.1720925999689,702.4189125999692,702.5281113999663,706.2492144000134,706.2492144000134,706.2492144000134,['8'],[0.4965086999582127],,,,,,,,,,,,,,,,,,,,,,,,,,,,,,,,,,,,,,,,,,,,,,,,,,,,,,,,,,,,,,,,,,,,,,,,200007,A,2022-10-12_13h54.22.262,mfe_b,2022.2.4,240.60902961948977,
csv_files/a_halfV_trialTable_10.csv,img/leftArrow.png,img/rightArrow.png,img/rightArrow.png,8,0,left,"[0, 0]","[0.0385, 0]","[-0.0385, 0]",img/neutralC/CFD-AM-209-048-N.jpg,"[0.035, 0.035]",,,,,,,,,,,,,,,,0,0,0,9,0,20,20,10,,,,,,,,,,,,,,,,,,,3.908817635270541,,,,,,,,,,1,,,,,,,,,,,,,,,706.2492144000134,706.2492144000134,706.3004218999995,706.2492144000134,706.2492144000134,706.5013780000154,706.6085131000145,710.2678277000086,710.2678277000086,710.2678277000086,['1'],[0.5436785999918357],,,,,,,,,,,,,,,,,,,,,,,,,,,,,,,,,,,,,,,,,,,,,,,,,,,,,,,,,,,,,,,,,,,,,,,,200007,A,2022-10-12_13h54.22.262,mfe_b,2022.2.4,240.60902961948977,
csv_files/a_halfV_trialTable_10.csv,img/rightArrow.png,img/leftArrow.png,img/leftArrow.png,7,0,right,"[0, 0]","[0.0385, 0]","[-0.0385, 0]",img/neutralC/CFD-BM-034-031-N.jpg,"[0.035, 0.035]",,,,,,,,,,,,,,,,0,0,0,9,0,21,21,14,,,,,,,,,,,,,,,,,,,3.8697394789579156,,,,,,,,,,1,,,,,,,,,,,,,,,710.2678277000086,710.2678277000086,710.3136642000172,710.2678277000086,710.2678277000086,710.5139692999655,710.6184510000166,714.2589883999899,714.2589883999899,714.2589883999899,['8'],[0.4850352000212297],,,,,,,,,,,,,,,,,,,,,,,,,,,,,,,,,,,,,,,,,,,,,,,,,,,,,,,,,,,,,,,,,,,,,,,,200007,A,2022-10-12_13h54.22.262,mfe_b,2022.2.4,240.60902961948977,
csv_files/a_halfV_trialTable_10.csv,img/rightArrow.png,img/leftArrow.png,img/leftArrow.png,7,0,right,"[0, 0]","[0.0385, 0]","[-0.0385, 0]",img/neutralC/CFD-WF-234-086-N.jpg,"[0.035, 0.035]",,,,,,,,,,,,,,,,0,0,0,9,0,22,22,12,,,,,,,,,,,,,,,,,,,3.99498997995992,,,,,,,,,,1,,,,,,,,,,,,,,,714.2589883999899,714.2589883999899,714.293800799991,714.2589883999899,714.2589883999899,714.4932485999889,714.6102083000005,718.3699208999751,718.3699208999751,718.3699208999751,['8'],[0.5082911000354216],,,,,,,,,,,,,,,,,,,,,,,,,,,,,,,,,,,,,,,,,,,,,,,,,,,,,,,,,,,,,,,,,,,,,,,,200007,A,2022-10-12_13h54.22.262,mfe_b,2022.2.4,240.60902961948977,
csv_files/a_halfV_trialTable_10.csv,img/leftArrow.png,img/leftArrow.png,img/leftArrow.png,6,1,left,"[0, 0]","[0.0385, 0]","[-0.0385, 0]",img/neutralC/CFD-WM-041-021-N.jpg,"[0.035, 0.035]",,,,,,,,,,,,,,,,0,0,0,9,0,23,23,28,,,,,,,,,,,,,,,,,,,3.972945891783567,,,,,,,,,,1,,,,,,,,,,,,,,,718.3699208999751,718.3699208999751,718.4055138999829,718.3699208999751,718.3699208999751,718.609899299976,718.7247661000001,722.4661252999795,722.4661252999795,722.4661252999795,['1'],[0.4894841000204906],,,,,,,,,,,,,,,,,,,,,,,,,,,,,,,,,,,,,,,,,,,,,,,,,,,,,,,,,,,,,,,,,,,,,,,,200007,A,2022-10-12_13h54.22.262,mfe_b,2022.2.4,240.60902961948977,
csv_files/a_halfV_trialTable_10.csv,img/leftArrow.png,img/leftArrow.png,img/leftArrow.png,6,1,left,"[0, 0]","[0.0385, 0]","[-0.0385, 0]",img/neutralC/CFD-IM-613-169-N.jpg,"[0.035, 0.035]",,,,,,,,,,,,,,,,0,0,0,9,0,24,24,7,,,,,,,,,,,,,,,,,,,3.6523046092184366,,,,,,,,,,1,,,,,,,,,,,,,,,722.4661252999795,722.4661252999795,722.4924951000139,722.4661252999795,722.4661252999795,722.6930615999736,722.8195718000061,726.2263214999693,726.2263214999693,726.2263214999693,['1'],[0.5501459000515752],,,,,,,,,,,,,,,,,,,,,,,,,,,,,,,,,,,,,,,,,,,,,,,,,,,,,,,,,,,,,,,,,,,,,,,,200007,A,2022-10-12_13h54.22.262,mfe_b,2022.2.4,240.60902961948977,
csv_files/a_halfV_trialTable_10.csv,img/leftArrow.png,img/rightArrow.png,img/rightArrow.png,8,0,left,"[0, 0]","[0.0385, 0]","[-0.0385, 0]",img/neutralC/CFD-IF-601-519-N.jpg,"[0.035, 0.035]",,,,,,,,,,,,,,,,0,0,0,9,0,25,25,18,,,,,,,,,,,,,,,,,,,3.8867735470941884,,,,,,,,,,1,,,,,,,,,,,,,,,726.2263214999693,726.2263214999693,726.2712719999836,726.2263214999693,726.2263214999693,726.4750444999663,726.576640299987,730.2254148999928,730.2254148999928,730.2254148999928,['1'],[0.5455096999648958],,,,,,,,,,,,,,,,,,,,,,,,,,,,,,,,,,,,,,,,,,,,,,,,,,,,,,,,,,,,,,,,,,,,,,,,200007,A,2022-10-12_13h54.22.262,mfe_b,2022.2.4,240.60902961948977,
csv_files/a_halfV_trialTable_10.csv,img/leftArrow.png,img/leftArrow.png,img/leftArrow.png,6,1,left,"[0, 0]","[0.0385, 0]","[-0.0385, 0]",img/neutralC/CFD-BM-252-161-N.jpg,"[0.035, 0.035]",,,,,,,,,,,,,,,,0,0,0,9,0,26,26,8,,,,,,,,,,,,,,,,,,,3.567134268537074,,,,,,,,,,1,,,,,,,,,,,,,,,730.2254148999928,730.2254148999928,730.2658882999676,730.2254148999928,730.2254148999928,730.4699054000084,730.5781917999848,733.9108227000106,733.9108227000106,733.9108227000106,['1'],[0.5118551999912597],,,,,,,,,,,,,,,,,,,,,,,,,,,,,,,,,,,,,,,,,,,,,,,,,,,,,,,,,,,,,,,,,,,,,,,,200007,A,2022-10-12_13h54.22.262,mfe_b,2022.2.4,240.60902961948977,
csv_files/a_halfV_trialTable_10.csv,img/rightArrow.png,img/rightArrow.png,img/rightArrow.png,5,1,right,"[0, 0]","[0.0385, 0]","[-0.0385, 0]",img/neutralC/CFD-MF-358-001-N.jpg,"[0.035, 0.035]",,,,,,,,,,,,,,,,0,0,0,9,0,27,27,30,,,,,,,,,,,,,,,,,,,3.831663326653307,,,,,,,,,,1,,,,,,,,,,,,,,,733.9108227000106,733.9108227000106,733.946011699969,733.9108227000106,733.9108227000106,734.1509739999892,734.2617733000079,737.8500098999939,737.8500098999939,737.8500098999939,['8'],[0.5392214999883436],,,,,,,,,,,,,,,,,,,,,,,,,,,,,,,,,,,,,,,,,,,,,,,,,,,,,,,,,,,,,,,,,,,,,,,,200007,A,2022-10-12_13h54.22.262,mfe_b,2022.2.4,240.60902961948977,
csv_files/a_halfV_trialTable_10.csv,img/leftArrow.png,img/leftArrow.png,img/leftArrow.png,6,1,left,"[0, 0]","[0.0385, 0]","[-0.0385, 0]",img/neutralC/CFD-AF-232-078-N.jpg,"[0.035, 0.035]",,,,,,,,,,,,,,,,0,0,0,9,0,28,28,22,,,,,,,,,,,,,,,,,,,3.971943887775551,,,,,,,,,,1,,,,,,,,,,,,,,,737.8500098999939,737.8500098999939,737.8990760999732,737.8500098999939,737.8500098999939,738.10083999997,738.199792200001,741.9337896999787,741.9337896999787,741.9337896999787,['1'],[0.4963726000278257],,,,,,,,,,,,,,,,,,,,,,,,,,,,,,,,,,,,,,,,,,,,,,,,,,,,,,,,,,,,,,,,,,,,,,,,200007,A,2022-10-12_13h54.22.262,mfe_b,2022.2.4,240.60902961948977,
csv_files/a_halfV_trialTable_10.csv,img/rightArrow.png,img/rightArrow.png,img/rightArrow.png,5,1,right,"[0, 0]","[0.0385, 0]","[-0.0385, 0]",img/neutralC/CFD-WM-003-002-N.jpg,"[0.035, 0.035]",,,,,,,,,,,,,,,,0,0,0,9,0,29,29,5,,,,,,,,,,,,,,,,,,,3.8867735470941884,,,,,,,,,,1,,,,,,,,,,,,,,,741.9337896999787,741.9337896999787,741.9780752999941,741.9337896999787,741.9337896999787,742.178918999969,742.2858143000049,745.9301764999982,745.9301764999982,745.9301764999982,['8'],[0.48881700000492856],,,,,,,,,,,,,,,,,,,,,,,,,,,,,,,,,,,,,,,,,,,,,,,,,,,,,,,,,,,,,,,,,,,,,,,,200007,A,2022-10-12_13h54.22.262,mfe_b,2022.2.4,240.60902961948977,
csv_files/a_halfV_trialTable_10.csv,img/leftArrow.png,img/rightArrow.png,img/rightArrow.png,8,0,left,"[0, 0]","[0.0385, 0]","[-0.0385, 0]",img/neutralC/CFD-IM-687-511-N.jpg,"[0.035, 0.035]",,,,,,,,,,,,,,,,0,0,0,9,0,30,30,1,,,,,,,,,,,,,,,,,,,3.5761523046092183,,,,,,,,,,1,,,,,,,,,,,,,,,745.9301764999982,745.9301764999982,745.9748781999806,745.9301764999982,745.9301764999982,746.1772059000214,746.2814373999718,749.6211943000089,749.6211943000089,749.6211943000089,['1'],[0.5223888999898918],,,,,,,,,,,,,,,,,,,,,,,,,,,,,,,,,,,,,,,,,,,,,,,,,,,,,,,,,,,,,,,,,,,,,,,,200007,A,2022-10-12_13h54.22.262,mfe_b,2022.2.4,240.60902961948977,
csv_files/a_halfV_trialTable_10.csv,img/rightArrow.png,img/rightArrow.png,img/rightArrow.png,5,1,right,"[0, 0]","[0.0385, 0]","[-0.0385, 0]",img/neutralC/CFD-MF-337-026-N.jpg,"[0.035, 0.035]",,,,,,,,,,,,,,,,0,0,0,9,0,31,31,11,,,,,,,,,,,,,,,,,,,3.908817635270541,,,,,,,,,,1,,,,,,,,,,,,,,,749.6211943000089,749.6211943000089,749.6623291000142,749.6211943000089,749.6211943000089,749.8640351999784,749.9736620999756,753.5568934999756,753.5568934999756,753.5568934999756,['8'],[0.7569941999972798],,,,,,,,,,,,,,,,,,,,,,,,,,,,,,,,,,,,,,,,,,,,,,,,,,,,,,,,,,,,,,,,,,,,,,,,200007,A,2022-10-12_13h54.22.262,mfe_b,2022.2.4,240.60902961948977,
csv_files/a_halfV_trialTable_10.csv,,,,,,,,,,,,,,,,,,,,,,,,,,,0,0,0,9,,,,,,,,,,,,,,,,,,,,,,,,,,,,,,,,,,,,,,,,,,,,,,,,,,,,,,,,,,,,2,753.5568934999756,763.5271627000184,8,0.8088313000043854,,,,,,,,,,,,,,,,,,,,,,,,,,,,,,,,,,,,,,,,,,,,,,,,,,,,,,,,,,,,,,,,,,,200007,A,2022-10-12_13h54.22.262,mfe_b,2022.2.4,240.60902961948977,
csv_files/a_halfV_trialTable_9.csv,img/rightArrow.png,img/rightArrow.png,img/rightArrow.png,5,1,right,"[0, 0]","[0.0385, 0]","[-0.0385, 0]",img/neutralC/CFD-WM-242-011-N.jpg,"[0.035, 0.035]",,,,,,,,,,,,,,,,0,1,1,8,0,0,0,11,,,,,,,,,,,,,,,,,,771.7342494999757,3.700400801603206,,,,,,,,,,1,,,,,,,,,,,764.3495008000173,764.3495008000173,8,7.364798500027973,773.8630091000232,773.8630091000232,773.8702085000114,773.8630091000232,773.8630091000232,774.0734498999664,774.2161412999849,777.6691137999878,777.6691137999878,777.6691137999878,['8'],[0.43770690000383183],,,,,,,,,,,,,,,,,,,,,,,,,,,,,,,,,,,,,,,,,,,,,,,,,,,,,,,,,,,,,,,,,,,,,,,,200007,A,2022-10-12_13h54.22.262,mfe_b,2022.2.4,240.60902961948977,
csv_files/a_halfV_trialTable_9.csv,img/leftArrow.png,img/rightArrow.png,img/rightArrow.png,8,0,left,"[0, 0]","[0.0385, 0]","[-0.0385, 0]",img/neutralC/CFD-MF-351-017-N.jpg,"[0.035, 0.035]",,,,,,,,,,,,,,,,0,1,1,8,0,1,1,18,,,,,,,,,,,,,,,,,,,3.879759519038076,,,,,,,,,,1,,,,,,,,,,,,,,,777.6691137999878,777.6691137999878,777.715677500004,777.6691137999878,777.6691137999878,777.9159357000026,778.0193635000032,781.6541567000095,781.6541567000095,781.6541567000095,['1'],[0.3993477000040002],,,,,,,,,,,,,,,,,,,,,,,,,,,,,,,,,,,,,,,,,,,,,,,,,,,,,,,,,,,,,,,,,,,,,,,,200007,A,2022-10-12_13h54.22.262,mfe_b,2022.2.4,240.60902961948977,
csv_files/a_halfV_trialTable_9.csv,img/rightArrow.png,img/rightArrow.png,img/rightArrow.png,5,1,right,"[0, 0]","[0.0385, 0]","[-0.0385, 0]",img/neutralC/CFD-AM-226-234-N.jpg,"[0.035, 0.035]",,,,,,,,,,,,,,,,0,1,1,8,0,2,2,21,,,,,,,,,,,,,,,,,,,3.6953907815631264,,,,,,,,,,1,,,,,,,,,,,,,,,781.6541567000095,781.6541567000095,781.7030677999719,781.6541567000095,781.6541567000095,781.9033355999854,782.0072347999667,785.472840500006,785.472840500006,785.472840500006,['8'],[0.3055387999629602],,,,,,,,,,,,,,,,,,,,,,,,,,,,,,,,,,,,,,,,,,,,,,,,,,,,,,,,,,,,,,,,,,,,,,,,200007,A,2022-10-12_13h54.22.262,mfe_b,2022.2.4,240.60902961948977,
csv_files/a_halfV_trialTable_9.csv,img/leftArrow.png,img/leftArrow.png,img/leftArrow.png,6,1,left,"[0, 0]","[0.0385, 0]","[-0.0385, 0]",img/neutralC/CFD-BF-002-001-N.jpg,"[0.035, 0.035]",,,,,,,,,,,,,,,,0,1,1,8,0,3,3,26,,,,,,,,,,,,,,,,,,,3.8026052104208414,,,,,,,,,,1,,,,,,,,,,,,,,,785.472840500006,785.472840500006,785.5028736999957,785.472840500006,785.472840500006,785.7033005999983,785.8229675000184,789.3746152999811,789.3746152999811,789.3746152999811,['1'],[0.2930227000033483],,,,,,,,,,,,,,,,,,,,,,,,,,,,,,,,,,,,,,,,,,,,,,,,,,,,,,,,,,,,,,,,,,,,,,,,200007,A,2022-10-12_13h54.22.262,mfe_b,2022.2.4,240.60902961948977,
csv_files/a_halfV_trialTable_9.csv,img/leftArrow.png,img/leftArrow.png,img/leftArrow.png,6,1,left,"[0, 0]","[0.0385, 0]","[-0.0385, 0]",img/neutralC/CFD-AF-241-141-N.jpg,"[0.035, 0.035]",,,,,,,,,,,,,,,,0,1,1,8,0,4,4,25,,,,,,,,,,,,,,,,,,,3.7575150300601203,,,,,,,,,,1,,,,,,,,,,,,,,,789.3746152999811,789.3746152999811,789.4293933999725,789.3746152999811,789.3746152999811,789.6297795000137,789.7256374999997,793.2501251000213,793.2501251000213,793.2501251000213,['1'],[0.39870850002625957],,,,,,,,,,,,,,,,,,,,,,,,,,,,,,,,,,,,,,,,,,,,,,,,,,,,,,,,,,,,,,,,,,,,,,,,200007,A,2022-10-12_13h54.22.262,mfe_b,2022.2.4,240.60902961948977,
csv_files/a_halfV_trialTable_9.csv,img/rightArrow.png,img/rightArrow.png,img/rightArrow.png,5,1,right,"[0, 0]","[0.0385, 0]","[-0.0385, 0]",img/neutralC/CFD-AF-234-208-N.jpg,"[0.035, 0.035]",,,,,,,,,,,,,,,,0,1,1,8,0,5,5,8,,,,,,,,,,,,,,,,,,,3.9228456913827654,,,,,,,,,,1,,,,,,,,,,,,,,,793.2501251000213,793.2501251000213,793.2856247000163,793.2501251000213,793.2501251000213,793.4889644000214,793.6010709999828,797.2862899000174,797.2862899000174,797.2862899000174,['8'],[0.37251729995477945],,,,,,,,,,,,,,,,,,,,,,,,,,,,,,,,,,,,,,,,,,,,,,,,,,,,,,,,,,,,,,,,,,,,,,,,200007,A,2022-10-12_13h54.22.262,mfe_b,2022.2.4,240.60902961948977,
csv_files/a_halfV_trialTable_9.csv,img/leftArrow.png,img/rightArrow.png,img/rightArrow.png,8,0,left,"[0, 0]","[0.0385, 0]","[-0.0385, 0]",img/neutralC/CFD-IM-671-601-N.jpg,"[0.035, 0.035]",,,,,,,,,,,,,,,,0,1,1,8,0,6,6,31,,,,,,,,,,,,,,,,,,,3.850701402805611,,,,,,,,,,1,,,,,,,,,,,,,,,797.2862899000174,797.2862899000174,797.3241395999794,797.2862899000174,797.2862899000174,797.5290306999814,797.6432407000102,801.2516919000191,801.2516919000191,801.2516919000191,['1'],[0.3456260999664664],,,,,,,,,,,,,,,,,,,,,,,,,,,,,,,,,,,,,,,,,,,,,,,,,,,,,,,,,,,,,,,,,,,,,,,,200007,A,2022-10-12_13h54.22.262,mfe_b,2022.2.4,240.60902961948977,
csv_files/a_halfV_trialTable_9.csv,img/leftArrow.png,img/leftArrow.png,img/leftArrow.png,6,1,left,"[0, 0]","[0.0385, 0]","[-0.0385, 0]",img/neutralC/CFD-LF-215-157-N.jpg,"[0.035, 0.035]",,,,,,,,,,,,,,,,0,1,1,8,0,7,7,10,,,,,,,,,,,,,,,,,,,3.769539078156313,,,,,,,,,,1,,,,,,,,,,,,,,,801.2516919000191,801.2516919000191,801.2874023999902,801.2516919000191,801.2516919000191,801.4919722999912,801.6047872999916,805.1279567999882,805.1279567999882,805.1279567999882,['1'],[0.35263559996383265],,,,,,,,,,,,,,,,,,,,,,,,,,,,,,,,,,,,,,,,,,,,,,,,,,,,,,,,,,,,,,,,,,,,,,,,200007,A,2022-10-12_13h54.22.262,mfe_b,2022.2.4,240.60902961948977,
csv_files/a_halfV_trialTable_9.csv,img/leftArrow.png,img/rightArrow.png,img/rightArrow.png,8,0,left,"[0, 0]","[0.0385, 0]","[-0.0385, 0]",img/neutralC/CFD-BF-245-178-N.jpg,"[0.035, 0.035]",,,,,,,,,,,,,,,,0,1,1,8,0,8,8,15,,,,,,,,,,,,,,,,,,,3.7675350701402803,,,,,,,,,,1,,,,,,,,,,,,,,,805.1279567999882,805.1279567999882,805.1721200000029,805.1279567999882,805.1279567999882,805.3769986999687,805.4797706999816,809.001730500022,809.001730500022,809.001730500022,['1'],[0.3684000999783166],,,,,,,,,,,,,,,,,,,,,,,,,,,,,,,,,,,,,,,,,,,,,,,,,,,,,,,,,,,,,,,,,,,,,,,,200007,A,2022-10-12_13h54.22.262,mfe_b,2022.2.4,240.60902961948977,
csv_files/a_halfV_trialTable_9.csv,img/rightArrow.png,img/leftArrow.png,img/leftArrow.png,7,0,right,"[0, 0]","[0.0385, 0]","[-0.0385, 0]",img/neutralC/CFD-IM-648-337-N.jpg,"[0.035, 0.035]",,,,,,,,,,,,,,,,0,1,1,8,0,9,9,9,,,,,,,,,,,,,,,,,,,3.900801603206413,,,,,,,,,,1,,,,,,,,,,,,,,,809.001730500022,809.001730500022,809.0496253999881,809.001730500022,809.001730500022,809.2511058999808,809.3541766999988,813.0289849999826,813.0289849999826,813.0289849999826,['8'],[0.3070547000388615],,,,,,,,,,,,,,,,,,,,,,,,,,,,,,,,,,,,,,,,,,,,,,,,,,,,,,,,,,,,,,,,,,,,,,,,200007,A,2022-10-12_13h54.22.262,mfe_b,2022.2.4,240.60902961948977,
csv_files/a_halfV_trialTable_9.csv,img/leftArrow.png,img/leftArrow.png,img/leftArrow.png,6,1,left,"[0, 0]","[0.0385, 0]","[-0.0385, 0]",img/neutralC/CFD-WF-250-167-N.jpg,"[0.035, 0.035]",,,,,,,,,,,,,,,,0,1,1,8,0,10,10,23,,,,,,,,,,,,,,,,,,,3.9629258517034067,,,,,,,,,,1,,,,,,,,,,,,,,,813.0289849999826,813.0289849999826,813.0678969,813.0289849999826,813.0289849999826,813.2738836000208,813.3787114999723,817.1012487999978,817.1012487999978,817.1012487999978,['1'],[0.2935299000237137],,,,,,,,,,,,,,,,,,,,,,,,,,,,,,,,,,,,,,,,,,,,,,,,,,,,,,,,,,,,,,,,,,,,,,,,200007,A,2022-10-12_13h54.22.262,mfe_b,2022.2.4,240.60902961948977,
csv_files/a_halfV_trialTable_9.csv,img/leftArrow.png,img/leftArrow.png,img/leftArrow.png,6,1,left,"[0, 0]","[0.0385, 0]","[-0.0385, 0]",img/neutralC/CFD-MF-346-008-N.jpg,"[0.035, 0.035]",,,,,,,,,,,,,,,,0,1,1,8,0,11,11,17,,,,,,,,,,,,,,,,,,,3.870741482965932,,,,,,,,,,1,,,,,,,,,,,,,,,817.1012487999978,817.1012487999978,817.1416591000161,817.1012487999978,817.1012487999978,817.3441720000119,817.4527993000229,821.0910528000095,821.0910528000095,821.0910528000095,['1'],[0.36747050000121817],,,,,,,,,,,,,,,,,,,,,,,,,,,,,,,,,,,,,,,,,,,,,,,,,,,,,,,,,,,,,,,,,,,,,,,,200007,A,2022-10-12_13h54.22.262,mfe_b,2022.2.4,240.60902961948977,
csv_files/a_halfV_trialTable_9.csv,img/leftArrow.png,img/leftArrow.png,img/leftArrow.png,6,1,left,"[0, 0]","[0.0385, 0]","[-0.0385, 0]",img/neutralC/CFD-MM-306-010-N.jpg,"[0.035, 0.035]",,,,,,,,,,,,,,,,0,1,1,8,0,12,12,16,,,,,,,,,,,,,,,,,,,3.664328657314629,,,,,,,,,,1,,,,,,,,,,,,,,,821.0910528000095,821.0910528000095,821.1268791999901,821.0910528000095,821.0910528000095,821.337008100003,821.4438719999744,824.8813557999674,824.8813557999674,824.8813557999674,['1'],[0.288680600002408],,,,,,,,,,,,,,,,,,,,,,,,,,,,,,,,,,,,,,,,,,,,,,,,,,,,,,,,,,,,,,,,,,,,,,,,200007,A,2022-10-12_13h54.22.262,mfe_b,2022.2.4,240.60902961948977,
csv_files/a_halfV_trialTable_9.csv,img/rightArrow.png,img/leftArrow.png,img/leftArrow.png,7,0,right,"[0, 0]","[0.0385, 0]","[-0.0385, 0]",img/neutralC/CFD-MM-323-053-N.jpg,"[0.035, 0.035]",,,,,,,,,,,,,,,,0,1,1,8,0,13,13,6,,,,,,,,,,,,,,,,,,,3.996993987975952,,,,,,,,,,0,,,,,,,,,,,,,,,824.8813557999674,824.8813557999674,824.908057899971,824.8813557999674,824.8813557999674,825.1103319000104,825.2357482999796,828.9895929999766,828.9895929999766,828.9895929999766,"['1', '8']","[0.3434766000136733, 0.4874813000205904]",,,,,,,,,,,,,,,,,,,,,,,,,,,,,,,,,,,,,,,,,,,,,,,,,,,,,,,,,,,,,,,,,,,,,,,,200007,A,2022-10-12_13h54.22.262,mfe_b,2022.2.4,240.60902961948977,
csv_files/a_halfV_trialTable_9.csv,img/rightArrow.png,img/leftArrow.png,img/leftArrow.png,7,0,right,"[0, 0]","[0.0385, 0]","[-0.0385, 0]",img/neutralC/CFD-WM-029-023-N.jpg,"[0.035, 0.035]",,,,,,,,,,,,,,,,0,1,1,8,0,14,14,30,,,,,,,,,,,,,,,,,,,3.6923847695390783,,,,,,,,,,1,,,,,,,,,,,,,,,828.9895929999766,828.9895929999766,829.0290810000151,828.9895929999766,828.9895929999766,829.2306787999696,829.3403244999936,832.784569600015,832.784569600015,832.784569600015,['8'],[0.4731292000506073],,,,,,,,,,,,,,,,,,,,,,,,,,,,,,,,,,,,,,,,,,,,,,,,,,,,,,,,,,,,,,,,,,,,,,,,200007,A,2022-10-12_13h54.22.262,mfe_b,2022.2.4,240.60902961948977,
csv_files/a_halfV_trialTable_9.csv,img/leftArrow.png,img/rightArrow.png,img/rightArrow.png,8,0,left,"[0, 0]","[0.0385, 0]","[-0.0385, 0]",img/neutralC/CFD-MM-322-002-N.jpg,"[0.035, 0.035]",,,,,,,,,,,,,,,,0,1,1,8,0,15,15,5,,,,,,,,,,,,,,,,,,,3.910821643286573,,,,,,,,,,1,,,,,,,,,,,,,,,832.784569600015,832.784569600015,832.8328564999974,832.784569600015,832.784569600015,833.0347701999708,833.1376893999986,836.8086753999814,836.8086753999814,836.8086753999814,['1'],[0.4456867999979295],,,,,,,,,,,,,,,,,,,,,,,,,,,,,,,,,,,,,,,,,,,,,,,,,,,,,,,,,,,,,,,,,,,,,,,,200007,A,2022-10-12_13h54.22.262,mfe_b,2022.2.4,240.60902961948977,
csv_files/a_halfV_trialTable_9.csv,img/leftArrow.png,img/rightArrow.png,img/rightArrow.png,8,0,left,"[0, 0]","[0.0385, 0]","[-0.0385, 0]",img/neutralC/CFD-MM-317-061-N.jpg,"[0.035, 0.035]",,,,,,,,,,,,,,,,0,1,1,8,0,16,16,29,,,,,,,,,,,,,,,,,,,3.907815631262525,,,,,,,,,,1,,,,,,,,,,,,,,,836.8086753999814,836.8086753999814,836.8436140000122,836.8086753999814,836.8086753999814,837.0454151000013,837.1575261999969,840.8382580999751,840.8382580999751,840.8382580999751,['1'],[0.4491404000436887],,,,,,,,,,,,,,,,,,,,,,,,,,,,,,,,,,,,,,,,,,,,,,,,,,,,,,,,,,,,,,,,,,,,,,,,200007,A,2022-10-12_13h54.22.262,mfe_b,2022.2.4,240.60902961948977,
csv_files/a_halfV_trialTable_9.csv,img/leftArrow.png,img/leftArrow.png,img/leftArrow.png,6,1,left,"[0, 0]","[0.0385, 0]","[-0.0385, 0]",img/neutralC/CFD-LM-252-076-N.jpg,"[0.035, 0.035]",,,,,,,,,,,,,,,,0,1,1,8,0,17,17,12,,,,,,,,,,,,,,,,,,,3.580160320641282,,,,,,,,,,1,,,,,,,,,,,,,,,840.8382580999751,840.8382580999751,840.8688527999911,840.8382580999751,840.8382580999751,841.0712439999916,841.1875377999968,844.5407541000168,844.5407541000168,844.5407541000168,['1'],[0.3959725999739021],,,,,,,,,,,,,,,,,,,,,,,,,,,,,,,,,,,,,,,,,,,,,,,,,,,,,,,,,,,,,,,,,,,,,,,,200007,A,2022-10-12_13h54.22.262,mfe_b,2022.2.4,240.60902961948977,
csv_files/a_halfV_trialTable_9.csv,img/leftArrow.png,img/rightArrow.png,img/rightArrow.png,8,0,left,"[0, 0]","[0.0385, 0]","[-0.0385, 0]",img/neutralC/CFD-BF-043-003-N.jpg,"[0.035, 0.035]",,,,,,,,,,,,,,,,0,1,1,8,0,18,18,24,,,,,,,,,,,,,,,,,,,3.7745490981963927,,,,,,,,,,1,,,,,,,,,,,,,,,844.5407541000168,844.5407541000168,844.5718132000184,844.5407541000168,844.5407541000168,844.773868600023,844.8903433000087,848.4353415999794,848.4353415999794,848.4353415999794,['1'],[0.40261579997604713],,,,,,,,,,,,,,,,,,,,,,,,,,,,,,,,,,,,,,,,,,,,,,,,,,,,,,,,,,,,,,,,,,,,,,,,200007,A,2022-10-12_13h54.22.262,mfe_b,2022.2.4,240.60902961948977,
csv_files/a_halfV_trialTable_9.csv,img/rightArrow.png,img/leftArrow.png,img/leftArrow.png,7,0,right,"[0, 0]","[0.0385, 0]","[-0.0385, 0]",img/neutralC/CFD-WF-206-147-N.jpg,"[0.035, 0.035]",,,,,,,,,,,,,,,,0,1,1,8,0,19,19,1,,,,,,,,,,,,,,,,,,,3.6362725450901805,,,,,,,,,,1,,,,,,,,,,,,,,,848.4353415999794,848.4353415999794,848.4713655000087,848.4353415999794,848.4353415999794,848.6829351999913,848.7893883999786,852.1907876000041,852.1907876000041,852.1907876000041,['8'],[0.5785933999577537],,,,,,,,,,,,,,,,,,,,,,,,,,,,,,,,,,,,,,,,,,,,,,,,,,,,,,,,,,,,,,,,,,,,,,,,200007,A,2022-10-12_13h54.22.262,mfe_b,2022.2.4,240.60902961948977,
csv_files/a_halfV_trialTable_9.csv,img/rightArrow.png,img/leftArrow.png,img/leftArrow.png,7,0,right,"[0, 0]","[0.0385, 0]","[-0.0385, 0]",img/neutralC/CFD-AM-250-149-N.jpg,"[0.035, 0.035]",,,,,,,,,,,,,,,,0,1,1,8,0,20,20,27,,,,,,,,,,,,,,,,,,,3.791583166332665,,,,,,,,,,1,,,,,,,,,,,,,,,852.1907876000041,852.1907876000041,852.227380700002,852.1907876000041,852.1907876000041,852.4368712999858,852.5424793999991,856.1035399999819,856.1035399999819,856.1035399999819,['8'],[0.4460036000236869],,,,,,,,,,,,,,,,,,,,,,,,,,,,,,,,,,,,,,,,,,,,,,,,,,,,,,,,,,,,,,,,,,,,,,,,200007,A,2022-10-12_13h54.22.262,mfe_b,2022.2.4,240.60902961948977,
csv_files/a_halfV_trialTable_9.csv,img/rightArrow.png,img/rightArrow.png,img/rightArrow.png,5,1,right,"[0, 0]","[0.0385, 0]","[-0.0385, 0]",img/neutralC/CFD-BM-031-003-N.jpg,"[0.035, 0.035]",,,,,,,,,,,,,,,,0,1,1,8,0,21,21,28,,,,,,,,,,,,,,,,,,,3.835671342685371,,,,,,,,,,1,,,,,,,,,,,,,,,856.1035399999819,856.1035399999819,856.1384624000057,856.1035399999819,856.1035399999819,856.3401874999981,856.4563133000047,860.0456591999973,860.0456591999973,860.0456591999973,['8'],[0.43750830000499263],,,,,,,,,,,,,,,,,,,,,,,,,,,,,,,,,,,,,,,,,,,,,,,,,,,,,,,,,,,,,,,,,,,,,,,,200007,A,2022-10-12_13h54.22.262,mfe_b,2022.2.4,240.60902961948977,
csv_files/a_halfV_trialTable_9.csv,img/rightArrow.png,img/rightArrow.png,img/rightArrow.png,5,1,right,"[0, 0]","[0.0385, 0]","[-0.0385, 0]",img/neutralC/CFD-BM-204-003-N.jpg,"[0.035, 0.035]",,,,,,,,,,,,,,,,0,1,1,8,0,22,22,19,,,,,,,,,,,,,,,,,,,3.534068136272545,,,,,,,,,,1,,,,,,,,,,,,,,,860.0456591999973,860.0456591999973,860.0906277999748,860.0456591999973,860.0456591999973,860.2926715000067,860.3951836000197,863.6919633999933,863.6919633999933,863.6919633999933,['8'],[0.5821605999954045],,,,,,,,,,,,,,,,,,,,,,,,,,,,,,,,,,,,,,,,,,,,,,,,,,,,,,,,,,,,,,,,,,,,,,,,200007,A,2022-10-12_13h54.22.262,mfe_b,2022.2.4,240.60902961948977,
csv_files/a_halfV_trialTable_9.csv,img/rightArrow.png,img/leftArrow.png,img/leftArrow.png,7,0,right,"[0, 0]","[0.0385, 0]","[-0.0385, 0]",img/neutralC/CFD-WF-242-001-N.jpg,"[0.035, 0.035]",,,,,,,,,,,,,,,,0,1,1,8,0,23,23,13,,,,,,,,,,,,,,,,,,,3.5631262525050102,,,,,,,,,,1,,,,,,,,,,,,,,,863.6919633999933,863.6919633999933,863.7421690999763,863.6919633999933,863.6919633999933,863.9425496999756,864.0444958999869,867.3711961000226,867.3711961000226,867.3711961000226,['8'],[0.46427029999904335],,,,,,,,,,,,,,,,,,,,,,,,,,,,,,,,,,,,,,,,,,,,,,,,,,,,,,,,,,,,,,,,,,,,,,,,200007,A,2022-10-12_13h54.22.262,mfe_b,2022.2.4,240.60902961948977,
csv_files/a_halfV_trialTable_9.csv,img/leftArrow.png,img/rightArrow.png,img/rightArrow.png,8,0,left,"[0, 0]","[0.0385, 0]","[-0.0385, 0]",img/neutralC/CFD-AM-234-355-N.jpg,"[0.035, 0.035]",,,,,,,,,,,,,,,,0,1,1,8,0,24,24,3,,,,,,,,,,,,,,,,,,,3.7404809619238475,,,,,,,,,,1,,,,,,,,,,,,,,,867.3711961000226,867.3711961000226,867.4119844000088,867.3711961000226,867.3711961000226,867.6154053999926,867.7236371000181,871.218462699966,871.218462699966,871.218462699966,['1'],[0.4864955000230111],,,,,,,,,,,,,,,,,,,,,,,,,,,,,,,,,,,,,,,,,,,,,,,,,,,,,,,,,,,,,,,,,,,,,,,,200007,A,2022-10-12_13h54.22.262,mfe_b,2022.2.4,240.60902961948977,
csv_files/a_halfV_trialTable_9.csv,img/rightArrow.png,img/leftArrow.png,img/leftArrow.png,7,0,right,"[0, 0]","[0.0385, 0]","[-0.0385, 0]",img/neutralC/CFD-WM-229-129-N.jpg,"[0.035, 0.035]",,,,,,,,,,,,,,,,0,1,1,8,0,25,25,7,,,,,,,,,,,,,,,,,,,3.9889779559118237,,,,,,,,,,1,,,,,,,,,,,,,,,871.218462699966,871.218462699966,871.2624669999932,871.218462699966,871.218462699966,871.4689516000217,871.5674394000089,875.3177364000003,875.3177364000003,875.3177364000003,['8'],[0.4731468000099994],,,,,,,,,,,,,,,,,,,,,,,,,,,,,,,,,,,,,,,,,,,,,,,,,,,,,,,,,,,,,,,,,,,,,,,,200007,A,2022-10-12_13h54.22.262,mfe_b,2022.2.4,240.60902961948977,
csv_files/a_halfV_trialTable_9.csv,img/rightArrow.png,img/rightArrow.png,img/rightArrow.png,5,1,right,"[0, 0]","[0.0385, 0]","[-0.0385, 0]",img/neutralC/CFD-WM-031-003-N.jpg,"[0.035, 0.035]",,,,,,,,,,,,,,,,0,1,1,8,0,26,26,4,,,,,,,,,,,,,,,,,,,3.5981963927855714,,,,,,,,,,1,,,,,,,,,,,,,,,875.3177364000003,875.3177364000003,875.3619263999863,875.3177364000003,875.3177364000003,875.5649860000121,875.6728610999999,879.0331923000049,879.0331923000049,879.0331923000049,['8'],[0.43296030000783503],,,,,,,,,,,,,,,,,,,,,,,,,,,,,,,,,,,,,,,,,,,,,,,,,,,,,,,,,,,,,,,,,,,,,,,,200007,A,2022-10-12_13h54.22.262,mfe_b,2022.2.4,240.60902961948977,
csv_files/a_halfV_trialTable_9.csv,img/rightArrow.png,img/rightArrow.png,img/rightArrow.png,5,1,right,"[0, 0]","[0.0385, 0]","[-0.0385, 0]",img/neutralC/CFD-LM-247-095-N.jpg,"[0.035, 0.035]",,,,,,,,,,,,,,,,0,1,1,8,0,27,27,22,,,,,,,,,,,,,,,,,,,3.902805611222445,,,,,,,,,,1,,,,,,,,,,,,,,,879.0331923000049,879.0331923000049,879.0683441999718,879.0331923000049,879.0331923000049,879.271623699984,879.3847599999863,883.0511879000114,883.0511879000114,883.0511879000114,['8'],[0.4441308000241406],,,,,,,,,,,,,,,,,,,,,,,,,,,,,,,,,,,,,,,,,,,,,,,,,,,,,,,,,,,,,,,,,,,,,,,,200007,A,2022-10-12_13h54.22.262,mfe_b,2022.2.4,240.60902961948977,
csv_files/a_halfV_trialTable_9.csv,img/leftArrow.png,img/rightArrow.png,img/rightArrow.png,8,0,left,"[0, 0]","[0.0385, 0]","[-0.0385, 0]",img/neutralC/CFD-BF-217-189-N.jpg,"[0.035, 0.035]",,,,,,,,,,,,,,,,0,1,1,8,0,28,28,14,,,,,,,,,,,,,,,,,,,3.986973947895792,,,,,,,,,,1,,,,,,,,,,,,,,,883.0511879000114,883.0511879000114,883.0872042999836,883.0511879000114,883.0511879000114,883.2899174999911,883.4035835000104,887.1541825999739,887.1541825999739,887.1541825999739,['1'],[0.46173779998207465],,,,,,,,,,,,,,,,,,,,,,,,,,,,,,,,,,,,,,,,,,,,,,,,,,,,,,,,,,,,,,,,,,,,,,,,200007,A,2022-10-12_13h54.22.262,mfe_b,2022.2.4,240.60902961948977,
csv_files/a_halfV_trialTable_9.csv,img/leftArrow.png,img/leftArrow.png,img/leftArrow.png,6,1,left,"[0, 0]","[0.0385, 0]","[-0.0385, 0]",img/neutralC/CFD-WF-015-006-N.jpg,"[0.035, 0.035]",,,,,,,,,,,,,,,,0,1,1,8,0,29,29,0,,,,,,,,,,,,,,,,,,,3.50501002004008,,,,,,,,,,1,,,,,,,,,,,,,,,887.1541825999739,887.1541825999739,887.189366400009,887.1541825999739,887.1541825999739,887.3904863999924,887.5071465999936,890.7675019999733,890.7675019999733,890.7675019999733,['1'],[0.4196326000383124],,,,,,,,,,,,,,,,,,,,,,,,,,,,,,,,,,,,,,,,,,,,,,,,,,,,,,,,,,,,,,,,,,,,,,,,200007,A,2022-10-12_13h54.22.262,mfe_b,2022.2.4,240.60902961948977,
csv_files/a_halfV_trialTable_9.csv,img/rightArrow.png,img/rightArrow.png,img/rightArrow.png,5,1,right,"[0, 0]","[0.0385, 0]","[-0.0385, 0]",img/neutralC/CFD-BM-045-004-N.jpg,"[0.035, 0.035]",,,,,,,,,,,,,,,,0,1,1,8,0,30,30,2,,,,,,,,,,,,,,,,,,,3.8366733466933867,,,,,,,,,,1,,,,,,,,,,,,,,,890.7675019999733,890.7675019999733,890.8106714999885,890.7675019999733,890.7675019999733,891.0104092999827,891.117416699999,894.7090248999884,894.7090248999884,894.7090248999884,['8'],[0.40338219999102876],,,,,,,,,,,,,,,,,,,,,,,,,,,,,,,,,,,,,,,,,,,,,,,,,,,,,,,,,,,,,,,,,,,,,,,,200007,A,2022-10-12_13h54.22.262,mfe_b,2022.2.4,240.60902961948977,
csv_files/a_halfV_trialTable_9.csv,img/rightArrow.png,img/leftArrow.png,img/leftArrow.png,7,0,right,"[0, 0]","[0.0385, 0]","[-0.0385, 0]",img/neutralC/CFD-IM-685-004-N.jpg,"[0.035, 0.035]",,,,,,,,,,,,,,,,0,1,1,8,0,31,31,20,,,,,,,,,,,,,,,,,,,3.7384769539078158,,,,,,,,,,1,,,,,,,,,,,,,,,894.7090248999884,894.7090248999884,894.753993100021,894.7090248999884,894.7090248999884,894.9562752000056,895.0678182999836,898.4492526999675,898.4492526999675,898.4492526999675,['8'],[0.4408337000058964],,,,,,,,,,,,,,,,,,,,,,,,,,,,,,,,,,,,,,,,,,,,,,,,,,,,,,,,,,,,,,,,,,,,,,,,200007,A,2022-10-12_13h54.22.262,mfe_b,2022.2.4,240.60902961948977,
csv_files/a_halfV_trialTable_9.csv,,,,,,,,,,,,,,,,,,,,,,,,,,,0,1,1,8,,,,,,,,,,,,,,,,,,,,,,,,,,,,,,,,,,,,,,,,,,,,,,,,,,,,,,,,,,,,2,898.4492526999675,908.448559499986,8,0.5682116000098176,,,,,,,,,,,,,,,,,,,,,,,,,,,,,,,,,,,,,,,,,,,,,,,,,,,,,,,,,,,,,,,,,,,200007,A,2022-10-12_13h54.22.262,mfe_b,2022.2.4,240.60902961948977,
csv_files/a_halfV_trialTable_6.csv,img/rightArrow.png,img/rightArrow.png,img/rightArrow.png,5,1,right,"[0, 0]","[0.0385, 0]","[-0.0385, 0]",img/neutralC/CFD-MF-333-012-N.jpg,"[0.035, 0.035]",,,,,,,,,,,,,,,,0,2,2,5,0,0,0,22,,,,,,,,,,,,,,,,,,918.2421058000182,3.827655310621242,,,,,,,,,,1,,,,,,,,,,,909.032953499991,909.032953499991,8,9.189330200024415,920.3770612999797,920.3770612999797,920.3857406000025,920.3770612999797,920.3770612999797,920.5879424000159,920.7273526000208,924.312693600019,924.312693600019,924.312693600019,['8'],[0.7792097000055946],,,,,,,,,,,,,,,,,,,,,,,,,,,,,,,,,,,,,,,,,,,,,,,,,,,,,,,,,,,,,,,,,,,,,,,,200007,A,2022-10-12_13h54.22.262,mfe_b,2022.2.4,240.60902961948977,
csv_files/a_halfV_trialTable_6.csv,img/rightArrow.png,img/leftArrow.png,img/leftArrow.png,7,0,right,"[0, 0]","[0.0385, 0]","[-0.0385, 0]",img/neutralC/CFD-LF-220-120-N.jpg,"[0.035, 0.035]",,,,,,,,,,,,,,,,0,2,2,5,0,1,1,0,,,,,,,,,,,,,,,,,,,3.750501002004008,,,,,,,,,,1,,,,,,,,,,,,,,,924.312693600019,924.312693600019,924.3567645999719,924.312693600019,924.312693600019,924.5609106000047,924.6659793999861,928.1755207999959,928.1755207999959,928.1755207999959,['8'],[0.39670149999437854],,,,,,,,,,,,,,,,,,,,,,,,,,,,,,,,,,,,,,,,,,,,,,,,,,,,,,,,,,,,,,,,,,,,,,,,200007,A,2022-10-12_13h54.22.262,mfe_b,2022.2.4,240.60902961948977,
csv_files/a_halfV_trialTable_6.csv,img/rightArrow.png,img/leftArrow.png,img/leftArrow.png,7,0,right,"[0, 0]","[0.0385, 0]","[-0.0385, 0]",img/neutralC/CFD-IF-672-305-N.jpg,"[0.035, 0.035]",,,,,,,,,,,,,,,,0,2,2,5,0,2,2,21,,,,,,,,,,,,,,,,,,,3.7925851703406814,,,,,,,,,,0,,,,,,,,,,,,,,,928.1755207999959,928.1755207999959,928.215343000018,928.1755207999959,928.1755207999959,928.4160577000002,928.5320361999911,932.0807129999739,932.0807129999739,932.0807129999739,"['1', '8']","[0.29712170001585037, 0.44601650000549853]",,,,,,,,,,,,,,,,,,,,,,,,,,,,,,,,,,,,,,,,,,,,,,,,,,,,,,,,,,,,,,,,,,,,,,,,200007,A,2022-10-12_13h54.22.262,mfe_b,2022.2.4,240.60902961948977,
csv_files/a_halfV_trialTable_6.csv,img/leftArrow.png,img/rightArrow.png,img/rightArrow.png,8,0,left,"[0, 0]","[0.0385, 0]","[-0.0385, 0]",img/neutralC/CFD-WM-001-014-N.jpg,"[0.035, 0.035]",,,,,,,,,,,,,,,,0,2,2,5,0,3,3,17,,,,,,,,,,,,,,,,,,,3.5521042084168335,,,,,,,,,,1,,,,,,,,,,,,,,,932.0807129999739,932.0807129999739,932.120163900021,932.0807129999739,932.0807129999739,932.3215004999656,932.4341849000193,935.7460344000137,935.7460344000137,935.7460344000137,['1'],[0.41908170003443956],,,,,,,,,,,,,,,,,,,,,,,,,,,,,,,,,,,,,,,,,,,,,,,,,,,,,,,,,,,,,,,,,,,,,,,,200007,A,2022-10-12_13h54.22.262,mfe_b,2022.2.4,240.60902961948977,
csv_files/a_halfV_trialTable_6.csv,img/rightArrow.png,img/rightArrow.png,img/rightArrow.png,5,1,right,"[0, 0]","[0.0385, 0]","[-0.0385, 0]",img/neutralC/CFD-WF-224-099-N.jpg,"[0.035, 0.035]",,,,,,,,,,,,,,,,0,2,2,5,0,4,4,15,,,,,,,,,,,,,,,,,,,3.979959919839679,,,,,,,,,,1,,,,,,,,,,,,,,,935.7460344000137,935.7460344000137,935.785825399973,935.7460344000137,935.7460344000137,935.987990499998,936.1046053000027,939.829764199967,939.829764199967,939.829764199967,['8'],[0.36573580000549555],,,,,,,,,,,,,,,,,,,,,,,,,,,,,,,,,,,,,,,,,,,,,,,,,,,,,,,,,,,,,,,,,,,,,,,,200007,A,2022-10-12_13h54.22.262,mfe_b,2022.2.4,240.60902961948977,
csv_files/a_halfV_trialTable_6.csv,img/rightArrow.png,img/rightArrow.png,img/rightArrow.png,5,1,right,"[0, 0]","[0.0385, 0]","[-0.0385, 0]",img/neutralC/CFD-BF-212-315-N.jpg,"[0.035, 0.035]",,,,,,,,,,,,,,,,0,2,2,5,0,5,5,18,,,,,,,,,,,,,,,,,,,3.8557114228456912,,,,,,,,,,1,,,,,,,,,,,,,,,939.829764199967,939.829764199967,939.8792558999849,939.829764199967,939.829764199967,940.0805075999815,940.1810258000041,943.7865232999902,943.7865232999902,943.7865232999902,['8'],[0.3806163999834098],,,,,,,,,,,,,,,,,,,,,,,,,,,,,,,,,,,,,,,,,,,,,,,,,,,,,,,,,,,,,,,,,,,,,,,,200007,A,2022-10-12_13h54.22.262,mfe_b,2022.2.4,240.60902961948977,
csv_files/a_halfV_trialTable_6.csv,img/rightArrow.png,img/leftArrow.png,img/leftArrow.png,7,0,right,"[0, 0]","[0.0385, 0]","[-0.0385, 0]",img/neutralC/CFD-AF-217-155-N.jpg,"[0.035, 0.035]",,,,,,,,,,,,,,,,0,2,2,5,0,6,6,27,,,,,,,,,,,,,,,,,,,3.748496993987976,,,,,,,,,,1,,,,,,,,,,,,,,,943.7865232999902,943.7865232999902,943.8384525000001,943.7865232999902,943.7865232999902,944.0423740000115,944.1383884999668,947.6516329000005,947.6516329000005,947.6516329000005,['8'],[0.45430050004506484],,,,,,,,,,,,,,,,,,,,,,,,,,,,,,,,,,,,,,,,,,,,,,,,,,,,,,,,,,,,,,,,,,,,,,,,200007,A,2022-10-12_13h54.22.262,mfe_b,2022.2.4,240.60902961948977,
csv_files/a_halfV_trialTable_6.csv,img/rightArrow.png,img/rightArrow.png,img/rightArrow.png,5,1,right,"[0, 0]","[0.0385, 0]","[-0.0385, 0]",img/neutralC/CFD-IF-741-040-N.jpg,"[0.035, 0.035]",,,,,,,,,,,,,,,,0,2,2,5,0,7,7,1,,,,,,,,,,,,,,,,,,,3.5821643286573144,,,,,,,,,,1,,,,,,,,,,,,,,,947.6516329000005,947.6516329000005,947.6860448999796,947.6516329000005,947.6516329000005,947.8862334999721,948.004519500013,951.3341058000224,951.3341058000224,951.3341058000224,['8'],[0.3056007000268437],,,,,,,,,,,,,,,,,,,,,,,,,,,,,,,,,,,,,,,,,,,,,,,,,,,,,,,,,,,,,,,,,,,,,,,,200007,A,2022-10-12_13h54.22.262,mfe_b,2022.2.4,240.60902961948977,
csv_files/a_halfV_trialTable_6.csv,img/leftArrow.png,img/rightArrow.png,img/rightArrow.png,8,0,left,"[0, 0]","[0.0385, 0]","[-0.0385, 0]",img/neutralC/CFD-LM-219-295-N.jpg,"[0.035, 0.035]",,,,,,,,,,,,,,,,0,2,2,5,0,8,8,4,,,,,,,,,,,,,,,,,,,3.969939879759519,,,,,,,,,,1,,,,,,,,,,,,,,,951.3341058000224,951.3341058000224,951.3890712999855,951.3341058000224,951.3341058000224,951.5976416000049,951.6872004999896,955.4120709999697,955.4120709999697,955.4120709999697,['1'],[0.36066459998255596],,,,,,,,,,,,,,,,,,,,,,,,,,,,,,,,,,,,,,,,,,,,,,,,,,,,,,,,,,,,,,,,,,,,,,,,200007,A,2022-10-12_13h54.22.262,mfe_b,2022.2.4,240.60902961948977,
csv_files/a_halfV_trialTable_6.csv,img/leftArrow.png,img/rightArrow.png,img/rightArrow.png,8,0,left,"[0, 0]","[0.0385, 0]","[-0.0385, 0]",img/neutralC/CFD-IM-646-023-N.jpg,"[0.035, 0.035]",,,,,,,,,,,,,,,,0,2,2,5,0,9,9,10,,,,,,,,,,,,,,,,,,,3.8947895791583163,,,,,,,,,,1,,,,,,,,,,,,,,,955.4120709999697,955.4120709999697,955.457597200002,955.4120709999697,955.4120709999697,955.6636827000184,955.7634726999677,959.4174371999688,959.4174371999688,959.4174371999688,['1'],[0.41870539996307343],,,,,,,,,,,,,,,,,,,,,,,,,,,,,,,,,,,,,,,,,,,,,,,,,,,,,,,,,,,,,,,,,,,,,,,,200007,A,2022-10-12_13h54.22.262,mfe_b,2022.2.4,240.60902961948977,
csv_files/a_halfV_trialTable_6.csv,img/rightArrow.png,img/leftArrow.png,img/leftArrow.png,7,0,right,"[0, 0]","[0.0385, 0]","[-0.0385, 0]",img/neutralC/CFD-LM-232-204-N.jpg,"[0.035, 0.035]",,,,,,,,,,,,,,,,0,2,2,5,0,10,10,12,,,,,,,,,,,,,,,,,,,3.9498997995991987,,,,,,,,,,1,,,,,,,,,,,,,,,959.4174371999688,959.4174371999688,959.4565115000005,959.4174371999688,959.4174371999688,959.6591259000124,959.7673185999738,963.4651230999734,963.4651230999734,963.4651230999734,['8'],[0.37683159997686744],,,,,,,,,,,,,,,,,,,,,,,,,,,,,,,,,,,,,,,,,,,,,,,,,,,,,,,,,,,,,,,,,,,,,,,,200007,A,2022-10-12_13h54.22.262,mfe_b,2022.2.4,240.60902961948977,
csv_files/a_halfV_trialTable_6.csv,img/leftArrow.png,img/leftArrow.png,img/leftArrow.png,6,1,left,"[0, 0]","[0.0385, 0]","[-0.0385, 0]",img/neutralC/CFD-AF-253-130-N.jpg,"[0.035, 0.035]",,,,,,,,,,,,,,,,0,2,2,5,0,11,11,6,,,,,,,,,,,,,,,,,,,3.9899799599198396,,,,,,,,,,1,,,,,,,,,,,,,,,963.4651230999734,963.4651230999734,963.518067499972,963.4651230999734,963.4651230999734,963.7195271999808,963.8146990999812,967.5591120999889,967.5591120999889,967.5591120999889,['1'],[0.4117058999836445],,,,,,,,,,,,,,,,,,,,,,,,,,,,,,,,,,,,,,,,,,,,,,,,,,,,,,,,,,,,,,,,,,,,,,,,200007,A,2022-10-12_13h54.22.262,mfe_b,2022.2.4,240.60902961948977,
csv_files/a_halfV_trialTable_6.csv,img/rightArrow.png,img/leftArrow.png,img/leftArrow.png,7,0,right,"[0, 0]","[0.0385, 0]","[-0.0385, 0]",img/neutralC/CFD-BM-213-134-N.jpg,"[0.035, 0.035]",,,,,,,,,,,,,,,,0,2,2,5,0,12,12,9,,,,,,,,,,,,,,,,,,,3.8627254509018036,,,,,,,,,,1,,,,,,,,,,,,,,,967.5591120999889,967.5591120999889,967.6080785000231,967.5591120999889,967.5591120999889,967.811917199986,967.909780099988,971.5243889999692,971.5243889999692,971.5243889999692,['8'],[0.44477140001254156],,,,,,,,,,,,,,,,,,,,,,,,,,,,,,,,,,,,,,,,,,,,,,,,,,,,,,,,,,,,,,,,,,,,,,,,200007,A,2022-10-12_13h54.22.262,mfe_b,2022.2.4,240.60902961948977,
csv_files/a_halfV_trialTable_6.csv,img/rightArrow.png,img/rightArrow.png,img/rightArrow.png,5,1,right,"[0, 0]","[0.0385, 0]","[-0.0385, 0]",img/neutralC/CFD-AF-201-060-N.jpg,"[0.035, 0.035]",,,,,,,,,,,,,,,,0,2,2,5,0,13,13,2,,,,,,,,,,,,,,,,,,,3.8517034068136273,,,,,,,,,,1,,,,,,,,,,,,,,,971.5243889999692,971.5243889999692,971.572920000006,971.5243889999692,971.5243889999692,971.7722937000217,971.8858997999923,975.4985776999965,975.4985776999965,975.4985776999965,['8'],[0.3376337999943644],,,,,,,,,,,,,,,,,,,,,,,,,,,,,,,,,,,,,,,,,,,,,,,,,,,,,,,,,,,,,,,,,,,,,,,,200007,A,2022-10-12_13h54.22.262,mfe_b,2022.2.4,240.60902961948977,
csv_files/a_halfV_trialTable_6.csv,img/rightArrow.png,img/leftArrow.png,img/leftArrow.png,7,0,right,"[0, 0]","[0.0385, 0]","[-0.0385, 0]",img/neutralC/CFD-LM-220-329-N.jpg,"[0.035, 0.035]",,,,,,,,,,,,,,,,0,2,2,5,0,14,14,23,,,,,,,,,,,,,,,,,,,3.526052104208417,,,,,,,,,,1,,,,,,,,,,,,,,,975.4985776999965,975.4985776999965,975.5296637999709,975.4985776999965,975.4985776999965,975.7306914000073,975.8561091999873,979.1437283999985,979.1437283999985,979.1437283999985,['8'],[0.4908259999938309],,,,,,,,,,,,,,,,,,,,,,,,,,,,,,,,,,,,,,,,,,,,,,,,,,,,,,,,,,,,,,,,,,,,,,,,200007,A,2022-10-12_13h54.22.262,mfe_b,2022.2.4,240.60902961948977,
csv_files/a_halfV_trialTable_6.csv,img/leftArrow.png,img/rightArrow.png,img/rightArrow.png,8,0,left,"[0, 0]","[0.0385, 0]","[-0.0385, 0]",img/neutralC/CFD-IM-707-105-N.jpg,"[0.035, 0.035]",,,,,,,,,,,,,,,,0,2,2,5,0,15,15,31,,,,,,,,,,,,,,,,,,,3.835671342685371,,,,,,,,,,1,,,,,,,,,,,,,,,979.1437283999985,979.1437283999985,979.1793545999681,979.1437283999985,979.1437283999985,979.3839909000089,979.4979931999696,983.0990791000077,983.0990791000077,983.0990791000077,['1'],[0.5292494000168517],,,,,,,,,,,,,,,,,,,,,,,,,,,,,,,,,,,,,,,,,,,,,,,,,,,,,,,,,,,,,,,,,,,,,,,,200007,A,2022-10-12_13h54.22.262,mfe_b,2022.2.4,240.60902961948977,
csv_files/a_halfV_trialTable_6.csv,img/rightArrow.png,img/leftArrow.png,img/leftArrow.png,7,0,right,"[0, 0]","[0.0385, 0]","[-0.0385, 0]",img/neutralC/CFD-IM-699-002-N.jpg,"[0.035, 0.035]",,,,,,,,,,,,,,,,0,2,2,5,0,16,16,20,,,,,,,,,,,,,,,,,,,3.8246492985971945,,,,,,,,,,1,,,,,,,,,,,,,,,983.0990791000077,983.0990791000077,983.1343022999936,983.0990791000077,983.0990791000077,983.3348210999975,983.4531007999904,987.0312799999956,987.0312799999956,987.0312799999956,['8'],[0.4518320999923162],,,,,,,,,,,,,,,,,,,,,,,,,,,,,,,,,,,,,,,,,,,,,,,,,,,,,,,,,,,,,,,,,,,,,,,,200007,A,2022-10-12_13h54.22.262,mfe_b,2022.2.4,240.60902961948977,
csv_files/a_halfV_trialTable_6.csv,img/leftArrow.png,img/leftArrow.png,img/leftArrow.png,6,1,left,"[0, 0]","[0.0385, 0]","[-0.0385, 0]",img/neutralC/CFD-WM-218-074-N.jpg,"[0.035, 0.035]",,,,,,,,,,,,,,,,0,2,2,5,0,17,17,28,,,,,,,,,,,,,,,,,,,3.69438877755511,,,,,,,,,,1,,,,,,,,,,,,,,,987.0312799999956,987.0312799999956,987.0791476999875,987.0312799999956,987.0312799999956,987.2791229999857,987.382595699979,990.8348071000073,990.8348071000073,990.8348071000073,['1'],[0.4802336000138894],,,,,,,,,,,,,,,,,,,,,,,,,,,,,,,,,,,,,,,,,,,,,,,,,,,,,,,,,,,,,,,,,,,,,,,,200007,A,2022-10-12_13h54.22.262,mfe_b,2022.2.4,240.60902961948977,
csv_files/a_halfV_trialTable_6.csv,img/rightArrow.png,img/rightArrow.png,img/rightArrow.png,5,1,right,"[0, 0]","[0.0385, 0]","[-0.0385, 0]",img/neutralC/CFD-AF-254-167-N.jpg,"[0.035, 0.035]",,,,,,,,,,,,,,,,0,2,2,5,0,18,18,16,,,,,,,,,,,,,,,,,,,3.5330661322645294,,,,,,,,,,1,,,,,,,,,,,,,,,990.8348071000073,990.8348071000073,990.8800798999728,990.8348071000073,990.8348071000073,991.0816501000081,991.1877802999807,994.4815752999857,994.4815752999857,994.4815752999857,['8'],[0.33812899998156354],,,,,,,,,,,,,,,,,,,,,,,,,,,,,,,,,,,,,,,,,,,,,,,,,,,,,,,,,,,,,,,,,,,,,,,,200007,A,2022-10-12_13h54.22.262,mfe_b,2022.2.4,240.60902961948977,
csv_files/a_halfV_trialTable_6.csv,img/leftArrow.png,img/leftArrow.png,img/leftArrow.png,6,1,left,"[0, 0]","[0.0385, 0]","[-0.0385, 0]",img/neutralC/CFD-LF-252-172-N.jpg,"[0.035, 0.035]",,,,,,,,,,,,,,,,0,2,2,5,0,19,19,19,,,,,,,,,,,,,,,,,,,3.5741482965931866,,,,,,,,,,1,,,,,,,,,,,,,,,994.4815752999857,994.4815752999857,994.5216330999974,994.4815752999857,994.4815752999857,994.7291184000205,994.8329140999704,998.1725642000092,998.1725642000092,998.1725642000092,['1'],[0.3999980000080541],,,,,,,,,,,,,,,,,,,,,,,,,,,,,,,,,,,,,,,,,,,,,,,,,,,,,,,,,,,,,,,,,,,,,,,,200007,A,2022-10-12_13h54.22.262,mfe_b,2022.2.4,240.60902961948977,
csv_files/a_halfV_trialTable_6.csv,img/leftArrow.png,img/leftArrow.png,img/leftArrow.png,6,1,left,"[0, 0]","[0.0385, 0]","[-0.0385, 0]",img/neutralC/CFD-WM-014-002-N.jpg,"[0.035, 0.035]",,,,,,,,,,,,,,,,0,2,2,5,0,20,20,29,,,,,,,,,,,,,,,,,,,3.838677354709419,,,,,,,,,,1,,,,,,,,,,,,,,,998.1725642000092,998.1725642000092,998.2086489999783,998.1725642000092,998.1725642000092,998.4123138000141,998.524442999973,1002.1270784999942,1002.1270784999942,1002.1270784999942,['1'],[0.44540470000356436],,,,,,,,,,,,,,,,,,,,,,,,,,,,,,,,,,,,,,,,,,,,,,,,,,,,,,,,,,,,,,,,,,,,,,,,200007,A,2022-10-12_13h54.22.262,mfe_b,2022.2.4,240.60902961948977,
csv_files/a_halfV_trialTable_6.csv,img/leftArrow.png,img/rightArrow.png,img/rightArrow.png,8,0,left,"[0, 0]","[0.0385, 0]","[-0.0385, 0]",img/neutralC/CFD-BF-030-002-N.jpg,"[0.035, 0.035]",,,,,,,,,,,,,,,,0,2,2,5,0,21,21,26,,,,,,,,,,,,,,,,,,,3.659318637274549,,,,,,,,,,1,,,,,,,,,,,,,,,1002.1270784999942,1002.1270784999942,1002.1645777999656,1002.1270784999942,1002.1270784999942,1002.3684188000043,1002.4802340000169,1005.9050898000132,1005.9050898000132,1005.9050898000132,['1'],[0.39091649994952604],,,,,,,,,,,,,,,,,,,,,,,,,,,,,,,,,,,,,,,,,,,,,,,,,,,,,,,,,,,,,,,,,,,,,,,,200007,A,2022-10-12_13h54.22.262,mfe_b,2022.2.4,240.60902961948977,
csv_files/a_halfV_trialTable_6.csv,img/leftArrow.png,img/leftArrow.png,img/leftArrow.png,6,1,left,"[0, 0]","[0.0385, 0]","[-0.0385, 0]",img/neutralC/CFD-LF-235-219-N.jpg,"[0.035, 0.035]",,,,,,,,,,,,,,,,0,2,2,5,0,22,22,8,,,,,,,,,,,,,,,,,,,3.8156312625250504,,,,,,,,,,1,,,,,,,,,,,,,,,1005.9050898000132,1005.9050898000132,1005.9405044000014,1005.9050898000132,1005.9050898000132,1006.1474845000193,1006.2584947000141,1009.8396339999745,1009.8396339999745,1009.8396339999745,['1'],[0.3086672000354156],,,,,,,,,,,,,,,,,,,,,,,,,,,,,,,,,,,,,,,,,,,,,,,,,,,,,,,,,,,,,,,,,,,,,,,,200007,A,2022-10-12_13h54.22.262,mfe_b,2022.2.4,240.60902961948977,
csv_files/a_halfV_trialTable_6.csv,img/leftArrow.png,img/leftArrow.png,img/leftArrow.png,6,1,left,"[0, 0]","[0.0385, 0]","[-0.0385, 0]",img/neutralC/CFD-WF-215-145-N.jpg,"[0.035, 0.035]",,,,,,,,,,,,,,,,0,2,2,5,0,23,23,24,,,,,,,,,,,,,,,,,,,3.7074148296593186,,,,,,,,,,1,,,,,,,,,,,,,,,1009.8396339999745,1009.8396339999745,1009.8709954000078,1009.8396339999745,1009.8396339999745,1010.0720646000118,1010.1894332999946,1013.6626081999857,1013.6626081999857,1013.6626081999857,['1'],[0.36745520000113174],,,,,,,,,,,,,,,,,,,,,,,,,,,,,,,,,,,,,,,,,,,,,,,,,,,,,,,,,,,,,,,,,,,,,,,,200007,A,2022-10-12_13h54.22.262,mfe_b,2022.2.4,240.60902961948977,
csv_files/a_halfV_trialTable_6.csv,img/leftArrow.png,img/rightArrow.png,img/rightArrow.png,8,0,left,"[0, 0]","[0.0385, 0]","[-0.0385, 0]",img/neutralC/CFD-MM-300-035-N.jpg,"[0.035, 0.035]",,,,,,,,,,,,,,,,0,2,2,5,0,24,24,3,,,,,,,,,,,,,,,,,,,3.9318637274549095,,,,,,,,,,1,,,,,,,,,,,,,,,1013.6626081999857,1013.6626081999857,1013.6971933000023,1013.6626081999857,1013.6626081999857,1013.8986532000126,1014.016401299974,1017.7134490999742,1017.7134490999742,1017.7134490999742,['1'],[0.38009400002192706],,,,,,,,,,,,,,,,,,,,,,,,,,,,,,,,,,,,,,,,,,,,,,,,,,,,,,,,,,,,,,,,,,,,,,,,200007,A,2022-10-12_13h54.22.262,mfe_b,2022.2.4,240.60902961948977,
csv_files/a_halfV_trialTable_6.csv,img/rightArrow.png,img/leftArrow.png,img/leftArrow.png,7,0,right,"[0, 0]","[0.0385, 0]","[-0.0385, 0]",img/neutralC/CFD-IF-629-234-N.jpg,"[0.035, 0.035]",,,,,,,,,,,,,,,,0,2,2,5,0,25,25,5,,,,,,,,,,,,,,,,,,,3.561122244488978,,,,,,,,,,1,,,,,,,,,,,,,,,1017.7134490999742,1017.7134490999742,1017.7440891999868,1017.7134490999742,1017.7134490999742,1017.94486649998,1018.0657887000125,1021.3909096000134,1021.3909096000134,1021.3909096000134,['8'],[0.4299522999790497],,,,,,,,,,,,,,,,,,,,,,,,,,,,,,,,,,,,,,,,,,,,,,,,,,,,,,,,,,,,,,,,,,,,,,,,200007,A,2022-10-12_13h54.22.262,mfe_b,2022.2.4,240.60902961948977,
csv_files/a_halfV_trialTable_6.csv,img/leftArrow.png,img/leftArrow.png,img/leftArrow.png,6,1,left,"[0, 0]","[0.0385, 0]","[-0.0385, 0]",img/neutralC/CFD-MF-301-024-N.jpg,"[0.035, 0.035]",,,,,,,,,,,,,,,,0,2,2,5,0,26,26,14,,,,,,,,,,,,,,,,,,,3.530060120240481,,,,,,,,,,1,,,,,,,,,,,,,,,1021.3909096000134,1021.3909096000134,1021.4331130000064,1021.3909096000134,1021.3909096000134,1021.6343371999683,1021.7406471999711,1025.046944600006,1025.046944600006,1025.046944600006,['1'],[0.371582500054501],,,,,,,,,,,,,,,,,,,,,,,,,,,,,,,,,,,,,,,,,,,,,,,,,,,,,,,,,,,,,,,,,,,,,,,,200007,A,2022-10-12_13h54.22.262,mfe_b,2022.2.4,240.60902961948977,
csv_files/a_halfV_trialTable_6.csv,img/leftArrow.png,img/rightArrow.png,img/rightArrow.png,8,0,left,"[0, 0]","[0.0385, 0]","[-0.0385, 0]",img/neutralC/CFD-LM-209-111-N.jpg,"[0.035, 0.035]",,,,,,,,,,,,,,,,0,2,2,5,0,27,27,11,,,,,,,,,,,,,,,,,,,3.6833667334669338,,,,,,,,,,1,,,,,,,,,,,,,,,1025.046944600006,1025.046944600006,1025.077630600019,1025.046944600006,1025.046944600006,1025.2851226999774,1025.3976390999742,1028.838326499972,1028.838326499972,1028.838326499972,['1'],[0.5117755000246689],,,,,,,,,,,,,,,,,,,,,,,,,,,,,,,,,,,,,,,,,,,,,,,,,,,,,,,,,,,,,,,,,,,,,,,,200007,A,2022-10-12_13h54.22.262,mfe_b,2022.2.4,240.60902961948977,
csv_files/a_halfV_trialTable_6.csv,img/rightArrow.png,img/rightArrow.png,img/rightArrow.png,5,1,right,"[0, 0]","[0.0385, 0]","[-0.0385, 0]",img/neutralC/CFD-BM-251-013-N.jpg,"[0.035, 0.035]",,,,,,,,,,,,,,,,0,2,2,5,0,28,28,25,,,,,,,,,,,,,,,,,,,3.688376753507014,,,,,,,,,,1,,,,,,,,,,,,,,,1028.838326499972,1028.838326499972,1028.8819275000133,1028.838326499972,1028.838326499972,1029.0843096000026,1029.1879647999885,1032.647282799997,1032.647282799997,1032.647282799997,"['8', '1']","[0.3994773000013083, 0.48859490000177175]",,,,,,,,,,,,,,,,,,,,,,,,,,,,,,,,,,,,,,,,,,,,,,,,,,,,,,,,,,,,,,,,,,,,,,,,200007,A,2022-10-12_13h54.22.262,mfe_b,2022.2.4,240.60902961948977,
csv_files/a_halfV_trialTable_6.csv,img/leftArrow.png,img/leftArrow.png,img/leftArrow.png,6,1,left,"[0, 0]","[0.0385, 0]","[-0.0385, 0]",img/neutralC/CFD-LF-242-121-N.jpg,"[0.035, 0.035]",,,,,,,,,,,,,,,,0,2,2,5,0,29,29,7,,,,,,,,,,,,,,,,,,,3.5861723446893787,,,,,,,,,,1,,,,,,,,,,,,,,,1032.647282799997,1032.647282799997,1032.6826665999833,1032.647282799997,1032.647282799997,1032.8864724999876,1032.9997907999787,1036.3487831999664,1036.3487831999664,1036.3487831999664,['1'],[0.4328995000105351],,,,,,,,,,,,,,,,,,,,,,,,,,,,,,,,,,,,,,,,,,,,,,,,,,,,,,,,,,,,,,,,,,,,,,,,200007,A,2022-10-12_13h54.22.262,mfe_b,2022.2.4,240.60902961948977,
csv_files/a_halfV_trialTable_6.csv,img/rightArrow.png,img/rightArrow.png,img/rightArrow.png,5,1,right,"[0, 0]","[0.0385, 0]","[-0.0385, 0]",img/neutralC/CFD-MF-334-002-N.jpg,"[0.035, 0.035]",,,,,,,,,,,,,,,,0,2,2,5,0,30,30,13,,,,,,,,,,,,,,,,,,,3.7014028056112225,,,,,,,,,,1,,,,,,,,,,,,,,,1036.3487831999664,1036.3487831999664,1036.3847542000003,1036.3487831999664,1036.3487831999664,1036.594451299985,1036.706734300009,1040.1718776000198,1040.1718776000198,1040.1718776000198,['8'],[0.34134499996434897],,,,,,,,,,,,,,,,,,,,,,,,,,,,,,,,,,,,,,,,,,,,,,,,,,,,,,,,,,,,,,,,,,,,,,,,200007,A,2022-10-12_13h54.22.262,mfe_b,2022.2.4,240.60902961948977,
csv_files/a_halfV_trialTable_6.csv,img/leftArrow.png,img/rightArrow.png,img/rightArrow.png,8,0,left,"[0, 0]","[0.0385, 0]","[-0.0385, 0]",img/neutralC/CFD-WM-200-034-N.jpg,"[0.035, 0.035]",,,,,,,,,,,,,,,,0,2,2,5,0,31,31,30,,,,,,,,,,,,,,,,,,,3.920841683366733,,,,,,,,,,1,,,,,,,,,,,,,,,1040.1718776000198,1040.1718776000198,1040.202312599984,1040.1718776000198,1040.1718776000198,1040.4043367999839,1040.5255843999912,1044.0955718000187,1044.0955718000187,1044.0955718000187,['1'],[0.6315819000010379],,,,,,,,,,,,,,,,,,,,,,,,,,,,,,,,,,,,,,,,,,,,,,,,,,,,,,,,,,,,,,,,,,,,,,,,200007,A,2022-10-12_13h54.22.262,mfe_b,2022.2.4,240.60902961948977,
csv_files/a_halfV_trialTable_6.csv,,,,,,,,,,,,,,,,,,,,,,,,,,,0,2,2,5,,,,,,,,,,,,,,,,,,,,,,,,,,,,,,,,,,,,,,,,,,,,,,,,,,,,,,,,,,,,2,1044.0955718000187,1054.094125100004,8,0.7075239000259899,,,,,,,,,,,,,,,,,,,,,,,,,,,,,,,,,,,,,,,,,,,,,,,,,,,,,,,,,,,,,,,,,,,200007,A,2022-10-12_13h54.22.262,mfe_b,2022.2.4,240.60902961948977,
csv_files/a_halfV_trialTable_11.csv,img/rightArrow.png,img/rightArrow.png,img/rightArrow.png,5,1,right,"[0, 0]","[0.0385, 0]","[-0.0385, 0]",img/neutralC/CFD-WM-026-001-N.jpg,"[0.035, 0.035]",,,,,,,,,,,,,,,,0,3,3,10,0,0,0,1,,,,,,,,,,,,,,,,,,1062.3190795999835,3.682364729458918,,,,,,,,,,1,,,,,,,,,,,1054.818177499983,1054.818177499983,8,7.4761882000020705,1064.4530932999915,1064.4530932999915,1064.4610864999704,1064.4530932999915,1064.4530932999915,1064.6650217999704,1064.8026000999962,1068.2555523000192,1068.2555523000192,1068.2555523000192,['8'],[0.5323097000364214],,,,,,,,,,,,,,,,,,,,,,,,,,,,,,,,,,,,,,,,,,,,,,,,,,,,,,,,,,,,,,,,,,,,,,,,200007,A,2022-10-12_13h54.22.262,mfe_b,2022.2.4,240.60902961948977,
csv_files/a_halfV_trialTable_11.csv,img/rightArrow.png,img/rightArrow.png,img/rightArrow.png,5,1,right,"[0, 0]","[0.0385, 0]","[-0.0385, 0]",img/neutralC/CFD-LF-202-065-N.jpg,"[0.035, 0.035]",,,,,,,,,,,,,,,,0,3,3,10,0,1,1,11,,,,,,,,,,,,,,,,,,,3.726452905811623,,,,,,,,,,0,,,,,,,,,,,,,,,1068.2555523000192,1068.2555523000192,1068.2858356999932,1068.2555523000192,1068.2555523000192,1068.4919663000037,1068.6086196000106,1072.0954917999916,1072.0954917999916,1072.0954917999916,['1'],[0.47320820001186803],,,,,,,,,,,,,,,,,,,,,,,,,,,,,,,,,,,,,,,,,,,,,,,,,,,,,,,,,,,,,,,,,,,,,,,,200007,A,2022-10-12_13h54.22.262,mfe_b,2022.2.4,240.60902961948977,
csv_files/a_halfV_trialTable_11.csv,img/rightArrow.png,img/rightArrow.png,img/rightArrow.png,5,1,right,"[0, 0]","[0.0385, 0]","[-0.0385, 0]",img/neutralC/CFD-IF-660-464-N.jpg,"[0.035, 0.035]",,,,,,,,,,,,,,,,0,3,3,10,0,2,2,25,,,,,,,,,,,,,,,,,,,3.797595190380761,,,,,,,,,,1,,,,,,,,,,,,,,,1072.0954917999916,1072.0954917999916,1072.1345780999982,1072.0954917999916,1072.0954917999916,1072.3382309000008,1072.4465116999927,1075.9974038000219,1075.9974038000219,1075.9974038000219,['8'],[0.40998540003784],,,,,,,,,,,,,,,,,,,,,,,,,,,,,,,,,,,,,,,,,,,,,,,,,,,,,,,,,,,,,,,,,,,,,,,,200007,A,2022-10-12_13h54.22.262,mfe_b,2022.2.4,240.60902961948977,
csv_files/a_halfV_trialTable_11.csv,img/rightArrow.png,img/leftArrow.png,img/leftArrow.png,7,0,right,"[0, 0]","[0.0385, 0]","[-0.0385, 0]",img/neutralC/CFD-BF-214-308-N.jpg,"[0.035, 0.035]",,,,,,,,,,,,,,,,0,3,3,10,0,3,3,5,,,,,,,,,,,,,,,,,,,3.5210420841683367,,,,,,,,,,1,,,,,,,,,,,,,,,1075.9974038000219,1075.9974038000219,1076.047890499991,1075.9974038000219,1075.9974038000219,1076.2477860000217,1076.3470440999954,1079.6357459999854,1079.6357459999854,1079.6357459999854,['8'],[0.41711570002371445],,,,,,,,,,,,,,,,,,,,,,,,,,,,,,,,,,,,,,,,,,,,,,,,,,,,,,,,,,,,,,,,,,,,,,,,200007,A,2022-10-12_13h54.22.262,mfe_b,2022.2.4,240.60902961948977,
csv_files/a_halfV_trialTable_11.csv,img/leftArrow.png,img/leftArrow.png,img/leftArrow.png,6,1,left,"[0, 0]","[0.0385, 0]","[-0.0385, 0]",img/neutralC/CFD-BF-221-223-N.jpg,"[0.035, 0.035]",,,,,,,,,,,,,,,,0,3,3,10,0,4,4,12,,,,,,,,,,,,,,,,,,,3.6412825651302607,,,,,,,,,,1,,,,,,,,,,,,,,,1079.6357459999854,1079.6357459999854,1079.6717620000127,1079.6357459999854,1079.6357459999854,1079.8723886000225,1079.9874450999778,1083.380768299976,1083.380768299976,1083.380768299976,['1'],[0.3808528000372462],,,,,,,,,,,,,,,,,,,,,,,,,,,,,,,,,,,,,,,,,,,,,,,,,,,,,,,,,,,,,,,,,,,,,,,,200007,A,2022-10-12_13h54.22.262,mfe_b,2022.2.4,240.60902961948977,
csv_files/a_halfV_trialTable_11.csv,img/leftArrow.png,img/rightArrow.png,img/rightArrow.png,8,0,left,"[0, 0]","[0.0385, 0]","[-0.0385, 0]",img/neutralC/CFD-AM-215-120-N.jpg,"[0.035, 0.035]",,,,,,,,,,,,,,,,0,3,3,10,0,5,5,20,,,,,,,,,,,,,,,,,,,3.7394789579158316,,,,,,,,,,1,,,,,,,,,,,,,,,1083.380768299976,1083.380768299976,1083.443211500009,1083.380768299976,1083.380768299976,1083.64769469999,1083.7310345000005,1087.237310299999,1087.237310299999,1087.237310299999,['1'],[0.5084381000488065],,,,,,,,,,,,,,,,,,,,,,,,,,,,,,,,,,,,,,,,,,,,,,,,,,,,,,,,,,,,,,,,,,,,,,,,200007,A,2022-10-12_13h54.22.262,mfe_b,2022.2.4,240.60902961948977,
csv_files/a_halfV_trialTable_11.csv,img/rightArrow.png,img/leftArrow.png,img/leftArrow.png,7,0,right,"[0, 0]","[0.0385, 0]","[-0.0385, 0]",img/neutralC/CFD-WM-243-107-N.jpg,"[0.035, 0.035]",,,,,,,,,,,,,,,,0,3,3,10,0,6,6,13,,,,,,,,,,,,,,,,,,,3.743486973947896,,,,,,,,,,1,,,,,,,,,,,,,,,1087.237310299999,1087.237310299999,1087.2716607999755,1087.237310299999,1087.237310299999,1087.4717949000187,1087.5875010999735,1091.098292300012,1091.098292300012,1091.098292300012,['8'],[0.42855949996737763],,,,,,,,,,,,,,,,,,,,,,,,,,,,,,,,,,,,,,,,,,,,,,,,,,,,,,,,,,,,,,,,,,,,,,,,200007,A,2022-10-12_13h54.22.262,mfe_b,2022.2.4,240.60902961948977,
csv_files/a_halfV_trialTable_11.csv,img/leftArrow.png,img/leftArrow.png,img/leftArrow.png,6,1,left,"[0, 0]","[0.0385, 0]","[-0.0385, 0]",img/neutralC/CFD-AM-228-214-N.jpg,"[0.035, 0.035]",,,,,,,,,,,,,,,,0,3,3,10,0,7,7,18,,,,,,,,,,,,,,,,,,,3.82064128256513,,,,,,,,,,1,,,,,,,,,,,,,,,1091.098292300012,1091.098292300012,1091.132944700017,1091.098292300012,1091.098292300012,1091.3340994999744,1091.4579286000226,1095.0260184999788,1095.0260184999788,1095.0260184999788,['1'],[0.4089551999932155],,,,,,,,,,,,,,,,,,,,,,,,,,,,,,,,,,,,,,,,,,,,,,,,,,,,,,,,,,,,,,,,,,,,,,,,200007,A,2022-10-12_13h54.22.262,mfe_b,2022.2.4,240.60902961948977,
csv_files/a_halfV_trialTable_11.csv,img/rightArrow.png,img/leftArrow.png,img/leftArrow.png,7,0,right,"[0, 0]","[0.0385, 0]","[-0.0385, 0]",img/neutralC/CFD-BF-028-001-N.jpg,"[0.035, 0.035]",,,,,,,,,,,,,,,,0,3,3,10,0,8,8,19,,,,,,,,,,,,,,,,,,,3.7715430861723447,,,,,,,,,,1,,,,,,,,,,,,,,,1095.0260184999788,1095.0260184999788,1095.0723639000207,1095.0260184999788,1095.0260184999788,1095.2740975000197,1095.3764981999993,1098.921264900011,1098.921264900011,1098.921264900011,['8'],[0.3999214000068605],,,,,,,,,,,,,,,,,,,,,,,,,,,,,,,,,,,,,,,,,,,,,,,,,,,,,,,,,,,,,,,,,,,,,,,,200007,A,2022-10-12_13h54.22.262,mfe_b,2022.2.4,240.60902961948977,
csv_files/a_halfV_trialTable_11.csv,img/leftArrow.png,img/rightArrow.png,img/rightArrow.png,8,0,left,"[0, 0]","[0.0385, 0]","[-0.0385, 0]",img/neutralC/CFD-BF-027-002-N.jpg,"[0.035, 0.035]",,,,,,,,,,,,,,,,0,3,3,10,0,9,9,16,,,,,,,,,,,,,,,,,,,3.5160320641282565,,,,,,,,,,1,,,,,,,,,,,,,,,1098.921264900011,1098.921264900011,1098.9520905999816,1098.921264900011,1098.921264900011,1099.1554670999758,1099.2721988999983,1102.5492964999867,1102.5492964999867,1102.5492964999867,['1'],[0.5502200999762863],,,,,,,,,,,,,,,,,,,,,,,,,,,,,,,,,,,,,,,,,,,,,,,,,,,,,,,,,,,,,,,,,,,,,,,,200007,A,2022-10-12_13h54.22.262,mfe_b,2022.2.4,240.60902961948977,
csv_files/a_halfV_trialTable_11.csv,img/rightArrow.png,img/rightArrow.png,img/rightArrow.png,5,1,right,"[0, 0]","[0.0385, 0]","[-0.0385, 0]",img/neutralC/CFD-IM-667-369-N.jpg,"[0.035, 0.035]",,,,,,,,,,,,,,,,0,3,3,10,0,10,10,26,,,,,,,,,,,,,,,,,,,3.6973947895791586,,,,,,,,,,1,,,,,,,,,,,,,,,1102.5492964999867,1102.5492964999867,1102.5889141000225,1102.5492964999867,1102.5492964999867,1102.7891127999756,1102.902134599979,1106.350566499983,1106.350566499983,1106.350566499983,['8'],[0.402980100014247],,,,,,,,,,,,,,,,,,,,,,,,,,,,,,,,,,,,,,,,,,,,,,,,,,,,,,,,,,,,,,,,,,,,,,,,200007,A,2022-10-12_13h54.22.262,mfe_b,2022.2.4,240.60902961948977,
csv_files/a_halfV_trialTable_11.csv,img/leftArrow.png,img/rightArrow.png,img/rightArrow.png,8,0,left,"[0, 0]","[0.0385, 0]","[-0.0385, 0]",img/neutralC/CFD-MF-320-002-N.jpg,"[0.035, 0.035]",,,,,,,,,,,,,,,,0,3,3,10,0,11,11,0,,,,,,,,,,,,,,,,,,,3.513026052104208,,,,,,,,,,1,,,,,,,,,,,,,,,1106.350566499983,1106.350566499983,1106.3991464999854,1106.350566499983,1106.350566499983,1106.6035711999866,1106.7021198999719,1109.9874455999816,1109.9874455999816,1109.9874455999816,['1'],[0.47315810003783554],,,,,,,,,,,,,,,,,,,,,,,,,,,,,,,,,,,,,,,,,,,,,,,,,,,,,,,,,,,,,,,,,,,,,,,,200007,A,2022-10-12_13h54.22.262,mfe_b,2022.2.4,240.60902961948977,
csv_files/a_halfV_trialTable_11.csv,img/rightArrow.png,img/rightArrow.png,img/rightArrow.png,5,1,right,"[0, 0]","[0.0385, 0]","[-0.0385, 0]",img/neutralC/CFD-IF-718-001-N.jpg,"[0.035, 0.035]",,,,,,,,,,,,,,,,0,3,3,10,0,12,12,15,,,,,,,,,,,,,,,,,,,3.960921843687375,,,,,,,,,,1,,,,,,,,,,,,,,,1109.9874455999816,1109.9874455999816,1110.0141349000041,1109.9874455999816,1109.9874455999816,1110.21469350002,1110.3382894999813,1114.0580025999807,1114.0580025999807,1114.0580025999807,['8'],[0.5785194000345655],,,,,,,,,,,,,,,,,,,,,,,,,,,,,,,,,,,,,,,,,,,,,,,,,,,,,,,,,,,,,,,,,,,,,,,,200007,A,2022-10-12_13h54.22.262,mfe_b,2022.2.4,240.60902961948977,
csv_files/a_halfV_trialTable_11.csv,img/rightArrow.png,img/rightArrow.png,img/rightArrow.png,5,1,right,"[0, 0]","[0.0385, 0]","[-0.0385, 0]",img/neutralC/CFD-WM-010-001-N.jpg,"[0.035, 0.035]",,,,,,,,,,,,,,,,0,3,3,10,0,13,13,8,,,,,,,,,,,,,,,,,,,3.5460921843687374,,,,,,,,,,1,,,,,,,,,,,,,,,1114.0580025999807,1114.0580025999807,1114.1037934999913,1114.0580025999807,1114.0580025999807,1114.311712900002,1114.410393500002,1117.7184521000017,1117.7184521000017,1117.7184521000017,['8'],[0.38362630002666265],,,,,,,,,,,,,,,,,,,,,,,,,,,,,,,,,,,,,,,,,,,,,,,,,,,,,,,,,,,,,,,,,,,,,,,,200007,A,2022-10-12_13h54.22.262,mfe_b,2022.2.4,240.60902961948977,
csv_files/a_halfV_trialTable_11.csv,img/leftArrow.png,img/rightArrow.png,img/rightArrow.png,8,0,left,"[0, 0]","[0.0385, 0]","[-0.0385, 0]",img/neutralC/CFD-IM-692-011-N.jpg,"[0.035, 0.035]",,,,,,,,,,,,,,,,0,3,3,10,0,14,14,14,,,,,,,,,,,,,,,,,,,3.6543086172344688,,,,,,,,,,1,,,,,,,,,,,,,,,1117.7184521000017,1117.7184521000017,1117.753905199992,1117.7184521000017,1117.7184521000017,1117.9574519000016,1118.0721362999757,1121.4899418000132,1121.4899418000132,1121.4899418000132,['1'],[0.4251542999991216],,,,,,,,,,,,,,,,,,,,,,,,,,,,,,,,,,,,,,,,,,,,,,,,,,,,,,,,,,,,,,,,,,,,,,,,200007,A,2022-10-12_13h54.22.262,mfe_b,2022.2.4,240.60902961948977,
csv_files/a_halfV_trialTable_11.csv,img/leftArrow.png,img/rightArrow.png,img/rightArrow.png,8,0,left,"[0, 0]","[0.0385, 0]","[-0.0385, 0]",img/neutralC/CFD-BF-044-034-N.jpg,"[0.035, 0.035]",,,,,,,,,,,,,,,,0,3,3,10,0,15,15,24,,,,,,,,,,,,,,,,,,,3.8046092184368736,,,,,,,,,,1,,,,,,,,,,,,,,,1121.4899418000132,1121.4899418000132,1121.5242966000224,1121.4899418000132,1121.4899418000132,1121.726235900016,1121.8436689000227,1125.4106582999812,1125.4106582999812,1125.4106582999812,['1'],[0.5046661999658681],,,,,,,,,,,,,,,,,,,,,,,,,,,,,,,,,,,,,,,,,,,,,,,,,,,,,,,,,,,,,,,,,,,,,,,,200007,A,2022-10-12_13h54.22.262,mfe_b,2022.2.4,240.60902961948977,
csv_files/a_halfV_trialTable_11.csv,img/rightArrow.png,img/leftArrow.png,img/leftArrow.png,7,0,right,"[0, 0]","[0.0385, 0]","[-0.0385, 0]",img/neutralC/CFD-IM-628-176-N.jpg,"[0.035, 0.035]",,,,,,,,,,,,,,,,0,3,3,10,0,16,16,29,,,,,,,,,,,,,,,,,,,3.779559118236473,,,,,,,,,,1,,,,,,,,,,,,,,,1125.4106582999812,1125.4106582999812,1125.4451939999708,1125.4106582999812,1125.4106582999812,1125.6444846999948,1125.7616626999807,1129.3094141000183,1129.3094141000183,1129.3094141000183,['8'],[0.4714793000021018],,,,,,,,,,,,,,,,,,,,,,,,,,,,,,,,,,,,,,,,,,,,,,,,,,,,,,,,,,,,,,,,,,,,,,,,200007,A,2022-10-12_13h54.22.262,mfe_b,2022.2.4,240.60902961948977,
csv_files/a_halfV_trialTable_11.csv,img/leftArrow.png,img/leftArrow.png,img/leftArrow.png,6,1,left,"[0, 0]","[0.0385, 0]","[-0.0385, 0]",img/neutralC/CFD-MM-302-002-N.jpg,"[0.035, 0.035]",,,,,,,,,,,,,,,,0,3,3,10,0,17,17,2,,,,,,,,,,,,,,,,,,,3.9929859719438876,,,,,,,,,,1,,,,,,,,,,,,,,,1129.3094141000183,1129.3094141000183,1129.3441639000084,1129.3094141000183,1129.3094141000183,1129.544456499978,1129.6620892999927,1133.4229336999706,1133.4229336999706,1133.4229336999706,['1'],[0.5662781000137329],,,,,,,,,,,,,,,,,,,,,,,,,,,,,,,,,,,,,,,,,,,,,,,,,,,,,,,,,,,,,,,,,,,,,,,,200007,A,2022-10-12_13h54.22.262,mfe_b,2022.2.4,240.60902961948977,
csv_files/a_halfV_trialTable_11.csv,img/rightArrow.png,img/rightArrow.png,img/rightArrow.png,5,1,right,"[0, 0]","[0.0385, 0]","[-0.0385, 0]",img/neutralC/CFD-LM-239-075-N.jpg,"[0.035, 0.035]",,,,,,,,,,,,,,,,0,3,3,10,0,18,18,22,,,,,,,,,,,,,,,,,,,3.5,,,,,,,,,,1,,,,,,,,,,,,,,,1133.4229336999706,1133.4229336999706,1133.4582269999664,1133.4229336999706,1133.4229336999706,1133.6615898999735,1133.7815027000033,1137.0369894999894,1137.0369894999894,1137.0369894999894,['8'],[0.3463795999996364],,,,,,,,,,,,,,,,,,,,,,,,,,,,,,,,,,,,,,,,,,,,,,,,,,,,,,,,,,,,,,,,,,,,,,,,200007,A,2022-10-12_13h54.22.262,mfe_b,2022.2.4,240.60902961948977,
csv_files/a_halfV_trialTable_11.csv,img/leftArrow.png,img/leftArrow.png,img/leftArrow.png,6,1,left,"[0, 0]","[0.0385, 0]","[-0.0385, 0]",img/neutralC/CFD-LM-206-204-N.jpg,"[0.035, 0.035]",,,,,,,,,,,,,,,,0,3,3,10,0,19,19,6,,,,,,,,,,,,,,,,,,,3.7194388777555107,,,,,,,,,,1,,,,,,,,,,,,,,,1137.0369894999894,1137.0369894999894,1137.0758109000162,1137.0369894999894,1137.0369894999894,1137.2757573999697,1137.3924988000072,1140.8630178999738,1140.8630178999738,1140.8630178999738,['1'],[0.33888540003681555],,,,,,,,,,,,,,,,,,,,,,,,,,,,,,,,,,,,,,,,,,,,,,,,,,,,,,,,,,,,,,,,,,,,,,,,200007,A,2022-10-12_13h54.22.262,mfe_b,2022.2.4,240.60902961948977,
csv_files/a_halfV_trialTable_11.csv,img/leftArrow.png,img/rightArrow.png,img/rightArrow.png,8,0,left,"[0, 0]","[0.0385, 0]","[-0.0385, 0]",img/neutralC/CFD-MF-308-001-N.jpg,"[0.035, 0.035]",,,,,,,,,,,,,,,,0,3,3,10,0,20,20,7,,,,,,,,,,,,,,,,,,,3.6933867735470938,,,,,,,,,,1,,,,,,,,,,,,,,,1140.8630178999738,1140.8630178999738,1140.9103747999761,1140.8630178999738,1140.8630178999738,1141.1123016999918,1141.21459519997,1144.673536700022,1144.673536700022,1144.673536700022,['1'],[0.5813207000028342],,,,,,,,,,,,,,,,,,,,,,,,,,,,,,,,,,,,,,,,,,,,,,,,,,,,,,,,,,,,,,,,,,,,,,,,200007,A,2022-10-12_13h54.22.262,mfe_b,2022.2.4,240.60902961948977,
csv_files/a_halfV_trialTable_11.csv,img/rightArrow.png,img/leftArrow.png,img/leftArrow.png,7,0,right,"[0, 0]","[0.0385, 0]","[-0.0385, 0]",img/neutralC/CFD-BF-024-002-N.jpg,"[0.035, 0.035]",,,,,,,,,,,,,,,,0,3,3,10,0,21,21,17,,,,,,,,,,,,,,,,,,,3.9408817635270537,,,,,,,,,,0,,,,,,,,,,,,,,,1144.673536700022,1144.673536700022,1144.7098687000107,1144.673536700022,1144.673536700022,1144.9130140999914,1145.024964799988,1148.7306515999953,1148.7306515999953,1148.7306515999953,"['1', '8']","[0.3208606000407599, 0.4125738000147976]",,,,,,,,,,,,,,,,,,,,,,,,,,,,,,,,,,,,,,,,,,,,,,,,,,,,,,,,,,,,,,,,,,,,,,,,200007,A,2022-10-12_13h54.22.262,mfe_b,2022.2.4,240.60902961948977,
csv_files/a_halfV_trialTable_11.csv,img/leftArrow.png,img/leftArrow.png,img/leftArrow.png,6,1,left,"[0, 0]","[0.0385, 0]","[-0.0385, 0]",img/neutralC/CFD-WM-004-010-N.jpg,"[0.035, 0.035]",,,,,,,,,,,,,,,,0,3,3,10,0,22,22,3,,,,,,,,,,,,,,,,,,,3.526052104208417,,,,,,,,,,1,,,,,,,,,,,,,,,1148.7306515999953,1148.7306515999953,1148.7662210999988,1148.7306515999953,1148.7306515999953,1148.9692382999929,1149.0798138999962,1152.3803740000003,1152.3803740000003,1152.3803740000003,['1'],[0.32424909999826923],,,,,,,,,,,,,,,,,,,,,,,,,,,,,,,,,,,,,,,,,,,,,,,,,,,,,,,,,,,,,,,,,,,,,,,,200007,A,2022-10-12_13h54.22.262,mfe_b,2022.2.4,240.60902961948977,
csv_files/a_halfV_trialTable_11.csv,img/leftArrow.png,img/leftArrow.png,img/leftArrow.png,6,1,left,"[0, 0]","[0.0385, 0]","[-0.0385, 0]",img/neutralC/CFD-LM-242-002-N.jpg,"[0.035, 0.035]",,,,,,,,,,,,,,,,0,3,3,10,0,23,23,4,,,,,,,,,,,,,,,,,,,3.8517034068136273,,,,,,,,,,1,,,,,,,,,,,,,,,1152.3803740000003,1152.3803740000003,1152.4112443000195,1152.3803740000003,1152.3803740000003,1152.614623099973,1152.7321308999672,1156.3504626000067,1156.3504626000067,1156.3504626000067,['1'],[0.3669135000091046],,,,,,,,,,,,,,,,,,,,,,,,,,,,,,,,,,,,,,,,,,,,,,,,,,,,,,,,,,,,,,,,,,,,,,,,200007,A,2022-10-12_13h54.22.262,mfe_b,2022.2.4,240.60902961948977,
csv_files/a_halfV_trialTable_11.csv,img/leftArrow.png,img/leftArrow.png,img/leftArrow.png,6,1,left,"[0, 0]","[0.0385, 0]","[-0.0385, 0]",img/neutralC/CFD-BM-205-001-N.jpg,"[0.035, 0.035]",,,,,,,,,,,,,,,,0,3,3,10,0,24,24,31,,,,,,,,,,,,,,,,,,,3.6783567134268536,,,,,,,,,,1,,,,,,,,,,,,,,,1156.3504626000067,1156.3504626000067,1156.3864576999913,1156.3504626000067,1156.3504626000067,1156.5901518000173,1156.7058151999954,1160.144761500007,1160.144761500007,1160.144761500007,['1'],[0.5036126999766566],,,,,,,,,,,,,,,,,,,,,,,,,,,,,,,,,,,,,,,,,,,,,,,,,,,,,,,,,,,,,,,,,,,,,,,,200007,A,2022-10-12_13h54.22.262,mfe_b,2022.2.4,240.60902961948977,
csv_files/a_halfV_trialTable_11.csv,img/rightArrow.png,img/leftArrow.png,img/leftArrow.png,7,0,right,"[0, 0]","[0.0385, 0]","[-0.0385, 0]",img/neutralC/CFD-IM-697-015-N.jpg,"[0.035, 0.035]",,,,,,,,,,,,,,,,0,3,3,10,0,25,25,23,,,,,,,,,,,,,,,,,,,3.603206412825651,,,,,,,,,,1,,,,,,,,,,,,,,,1160.144761500007,1160.144761500007,1160.1847019999987,1160.144761500007,1160.144761500007,1160.3854026999907,1160.4968787999824,1163.8728593999986,1163.8728593999986,1163.8728593999986,['8'],[0.49681260000215843],,,,,,,,,,,,,,,,,,,,,,,,,,,,,,,,,,,,,,,,,,,,,,,,,,,,,,,,,,,,,,,,,,,,,,,,200007,A,2022-10-12_13h54.22.262,mfe_b,2022.2.4,240.60902961948977,
csv_files/a_halfV_trialTable_11.csv,img/rightArrow.png,img/rightArrow.png,img/rightArrow.png,5,1,right,"[0, 0]","[0.0385, 0]","[-0.0385, 0]",img/neutralC/CFD-WF-019-005-N.jpg,"[0.035, 0.035]",,,,,,,,,,,,,,,,0,3,3,10,0,26,26,28,,,,,,,,,,,,,,,,,,,3.672344689378758,,,,,,,,,,1,,,,,,,,,,,,,,,1163.8728593999986,1163.8728593999986,1163.8995886999764,1163.8728593999986,1163.8728593999986,1164.1107466999674,1164.2260530000203,1167.647949300008,1167.647949300008,1167.647949300008,['8'],[0.5834229000029154],,,,,,,,,,,,,,,,,,,,,,,,,,,,,,,,,,,,,,,,,,,,,,,,,,,,,,,,,,,,,,,,,,,,,,,,200007,A,2022-10-12_13h54.22.262,mfe_b,2022.2.4,240.60902961948977,
csv_files/a_halfV_trialTable_11.csv,img/leftArrow.png,img/rightArrow.png,img/rightArrow.png,8,0,left,"[0, 0]","[0.0385, 0]","[-0.0385, 0]",img/neutralC/CFD-MF-357-002-N.jpg,"[0.035, 0.035]",,,,,,,,,,,,,,,,0,3,3,10,0,27,27,21,,,,,,,,,,,,,,,,,,,3.8326653306613223,,,,,,,,,,1,,,,,,,,,,,,,,,1167.647949300008,1167.647949300008,1167.6951369000017,1167.647949300008,1167.647949300008,1167.8957410000148,1167.9989810999832,1171.6101571000181,1171.6101571000181,1171.6101571000181,['1'],[0.39211100002285093],,,,,,,,,,,,,,,,,,,,,,,,,,,,,,,,,,,,,,,,,,,,,,,,,,,,,,,,,,,,,,,,,,,,,,,,200007,A,2022-10-12_13h54.22.262,mfe_b,2022.2.4,240.60902961948977,
csv_files/a_halfV_trialTable_11.csv,img/rightArrow.png,img/leftArrow.png,img/leftArrow.png,7,0,right,"[0, 0]","[0.0385, 0]","[-0.0385, 0]",img/neutralC/CFD-AM-251-124-N.jpg,"[0.035, 0.035]",,,,,,,,,,,,,,,,0,3,3,10,0,28,28,27,,,,,,,,,,,,,,,,,,,3.8587174348697393,,,,,,,,,,1,,,,,,,,,,,,,,,1171.6101571000181,1171.6101571000181,1171.6371477000066,1171.6101571000181,1171.6101571000181,1171.8378679999732,1171.9653090999927,1175.5748979999917,1175.5748979999917,1175.5748979999917,['8'],[0.4959642000030726],,,,,,,,,,,,,,,,,,,,,,,,,,,,,,,,,,,,,,,,,,,,,,,,,,,,,,,,,,,,,,,,,,,,,,,,200007,A,2022-10-12_13h54.22.262,mfe_b,2022.2.4,240.60902961948977,
csv_files/a_halfV_trialTable_11.csv,img/leftArrow.png,img/leftArrow.png,img/leftArrow.png,6,1,left,"[0, 0]","[0.0385, 0]","[-0.0385, 0]",img/neutralC/CFD-BF-226-119-N.jpg,"[0.035, 0.035]",,,,,,,,,,,,,,,,0,3,3,10,0,29,29,9,,,,,,,,,,,,,,,,,,,3.664328657314629,,,,,,,,,,1,,,,,,,,,,,,,,,1175.5748979999917,1175.5748979999917,1175.6197972000227,1175.5748979999917,1175.5748979999917,1175.828732199967,1175.929249799985,1179.3462166999816,1179.3462166999816,1179.3462166999816,['1'],[0.45594870002241805],,,,,,,,,,,,,,,,,,,,,,,,,,,,,,,,,,,,,,,,,,,,,,,,,,,,,,,,,,,,,,,,,,,,,,,,200007,A,2022-10-12_13h54.22.262,mfe_b,2022.2.4,240.60902961948977,
csv_files/a_halfV_trialTable_11.csv,img/rightArrow.png,img/leftArrow.png,img/leftArrow.png,7,0,right,"[0, 0]","[0.0385, 0]","[-0.0385, 0]",img/neutralC/CFD-WF-226-095-N.jpg,"[0.035, 0.035]",,,,,,,,,,,,,,,,0,3,3,10,0,30,30,30,,,,,,,,,,,,,,,,,,,3.9529058116232463,,,,,,,,,,1,,,,,,,,,,,,,,,1179.3462166999816,1179.3462166999816,1179.3955265000113,1179.3462166999816,1179.3462166999816,1179.5972825000063,1179.6965110999881,1183.4027536999783,1183.4027536999783,1183.4027536999783,['8'],[0.47812410001643],,,,,,,,,,,,,,,,,,,,,,,,,,,,,,,,,,,,,,,,,,,,,,,,,,,,,,,,,,,,,,,,,,,,,,,,200007,A,2022-10-12_13h54.22.262,mfe_b,2022.2.4,240.60902961948977,
csv_files/a_halfV_trialTable_11.csv,img/leftArrow.png,img/rightArrow.png,img/rightArrow.png,8,0,left,"[0, 0]","[0.0385, 0]","[-0.0385, 0]",img/neutralC/CFD-AF-211-066-N.jpg,"[0.035, 0.035]",,,,,,,,,,,,,,,,0,3,3,10,0,31,31,10,,,,,,,,,,,,,,,,,,,3.734468937875752,,,,,,,,,,1,,,,,,,,,,,,,,,1183.4027536999783,1183.4027536999783,1183.4517404999933,1183.4027536999783,1183.4027536999783,1183.6535882999888,1183.7575640999712,1187.1374893999891,1187.1374893999891,1187.1374893999891,['1'],[0.45654889999423176],,,,,,,,,,,,,,,,,,,,,,,,,,,,,,,,,,,,,,,,,,,,,,,,,,,,,,,,,,,,,,,,,,,,,,,,200007,A,2022-10-12_13h54.22.262,mfe_b,2022.2.4,240.60902961948977,
csv_files/a_halfV_trialTable_11.csv,,,,,,,,,,,,,,,,,,,,,,,,,,,0,3,3,10,,,,,,,,,,,,,,,,,,,,,,,,,,,,,,,,,,,,,,,,,,,,,,,,,,,,,,,,,,,,2,1187.1374893999891,1197.1335874000215,8,0.6046351999975741,,,,,,,,,,,,,,,,,,,,,,,,,,,,,,,,,,,,,,,,,,,,,,,,,,,,,,,,,,,,,,,,,,,200007,A,2022-10-12_13h54.22.262,mfe_b,2022.2.4,240.60902961948977,
csv_files/a_halfV_trialTable_8.csv,img/leftArrow.png,img/rightArrow.png,img/rightArrow.png,8,0,left,"[0, 0]","[0.0385, 0]","[-0.0385, 0]",img/neutralC/CFD-AM-229-224-N.jpg,"[0.035, 0.035]",,,,,,,,,,,,,,,,0,4,4,7,0,0,0,27,,,,,,,,,,,,,,,,,,1201.2311265000026,3.928857715430862,,,,,,,,,,1,,,,,,,,,,,1197.751771899988,1197.751771899988,8,3.459506599989254,1203.3711852999986,1203.3711852999986,1203.3802463000175,1203.3711852999986,1203.3711852999986,1203.5820778000052,1203.7203921999899,1207.421747800021,1207.421747800021,1207.421747800021,"['1', '1']","[0.5772685999982059, 0.748291700030677]",,,,,,,,,,,,,,,,,,,,,,,,,,,,,,,,,,,,,,,,,,,,,,,,,,,,,,,,,,,,,,,,,,,,,,,,200007,A,2022-10-12_13h54.22.262,mfe_b,2022.2.4,240.60902961948977,
