whichBlock,middleStim,leftStim,rightStim,stimNum,congruent,target,locationC,locationR,locationL,straightFace,imageSize,prac_block_loop.thisRepN,prac_block_loop.thisTrialN,prac_block_loop.thisN,prac_block_loop.thisIndex,prac_trial_loop.thisRepN,prac_trial_loop.thisTrialN,prac_trial_loop.thisN,prac_trial_loop.thisIndex,prac_blockText.started,prac_blockText.stopped,prac_reminder_text.started,prac_reminder_text.stopped,prac_reminder_keyResp.keys,prac_reminder_keyResp.rt,prac_reminder_keyResp.started,prac_reminder_keyResp.stopped,initFixation_img.started,initFixation_img.stopped,ISI,bigFace.started,bigFace.stopped,cover_background_2.started,cover_background_2.stopped,prac_centerImg.started,prac_centerImg.stopped,prac_stim_keyResp.keys,prac_stim_keyResp.started,prac_stim_keyResp.stopped,accuracy,prac_blockFeed_text.started,prac_blockFeed_text.stopped,prac_pressContinue.started,prac_pressContinue.stopped,prac_blockFeed_keyResp.keys,prac_blockFeed_keyResp.rt,prac_blockFeed_keyResp.started,prac_blockFeed_keyResp.stopped,id,cb,friendly,date,expName,psychopyVersion,frameRate,
a_halfV_trialTable_practice.csv,img/rightArrow.png,img/rightArrow.png,img/rightArrow.png,5,1,right,"[0, 0]","[0.036, 0]","[-0.036, 0]",img/neutralC/CFD-AM-240-191-N.jpg,"[0.03, 0.03]",0,0,0,0,0,0,0,15,25.12225024300278,None,25.12225024300278,None,8,0.5475854230171535,25.12225024300278,None,25.740671022998868,None,1.540080160320641,28.032860537001397,None,28.032860537001397,28.244485856994288,28.032860537001397,28.244485856994288,None,28.032860537001397,None,0,,,,,,,,,001,A,A,2022_May_19_1059,face_flanker_v1,2021.2.3,59.70088626720431,
a_halfV_trialTable_practice.csv,img/leftArrow.png,img/leftArrow.png,img/leftArrow.png,6,1,left,"[0, 0]","[0.036, 0]","[-0.036, 0]",img/neutralC/CFD-WF-006-002-N.jpg,"[0.03, 0.03]",0,0,0,0,0,1,1,3,,,,,,,,,,,1.9959919839679359,29.824656320008216,29.824656320008216,29.824656320008216,30.027155263000168,29.824656320008216,30.027155263000168,None,29.824656320008216,29.824656320008216,0,,,,,,,,,001,A,A,2022_May_19_1059,face_flanker_v1,2021.2.3,59.70088626720431,
a_halfV_trialTable_practice.csv,img/leftArrow.png,img/leftArrow.png,img/leftArrow.png,6,1,left,"[0, 0]","[0.036, 0]","[-0.036, 0]",img/neutralC/CFD-IM-728-041-N.jpg,"[0.03, 0.03]",0,0,0,0,0,2,2,9,,,,,,,,,,,1.997995991983968,32.03772690799087,32.03772690799087,32.03772690799087,32.24290252401261,32.03772690799087,32.24290252401261,None,32.03772690799087,32.03772690799087,0,,,,,,,,,001,A,A,2022_May_19_1059,face_flanker_v1,2021.2.3,59.70088626720431,
a_halfV_trialTable_practice.csv,img/leftArrow.png,img/rightArrow.png,img/rightArrow.png,8,0,left,"[0, 0]","[0.036, 0]","[-0.036, 0]",img/neutralC/CFD-LM-215-247-N.jpg,"[0.03, 0.03]",0,0,0,0,0,3,3,17,,,,,,,,,,,1.8597194388777554,34.24183825799264,34.24183825799264,34.24183825799264,34.44223363601486,34.24183825799264,34.44223363601486,None,34.24183825799264,34.24183825799264,0,,,,,,,,,001,A,A,2022_May_19_1059,face_flanker_v1,2021.2.3,59.70088626720431,
a_halfV_trialTable_practice.csv,img/leftArrow.png,img/rightArrow.png,img/rightArrow.png,8,0,left,"[0, 0]","[0.036, 0]","[-0.036, 0]",img/neutralC/CFD-BM-217-082-N.jpg,"[0.03, 0.03]",0,0,0,0,0,4,4,8,,,,,,,,,,,1.6583166332665331,36.30354582899599,36.30354582899599,36.30354582899599,36.50855273401248,36.30354582899599,36.50855273401248,None,36.30354582899599,36.30354582899599,0,,,,,,,,,001,A,A,2022_May_19_1059,face_flanker_v1,2021.2.3,59.70088626720431,
a_halfV_trialTable_practice.csv,img/leftArrow.png,img/leftArrow.png,img/leftArrow.png,6,1,left,"[0, 0]","[0.036, 0]","[-0.036, 0]",img/neutralC/CFD-BM-001-014-N.jpg,"[0.03, 0.03]",0,0,0,0,0,5,5,10,,,,,,,,,,,1.723446893787575,38.16260763400351,38.16260763400351,38.16260763400351,38.37433381000301,38.16260763400351,38.37433381000301,None,38.16260763400351,38.16260763400351,0,,,,,,,,,001,A,A,2022_May_19_1059,face_flanker_v1,2021.2.3,59.70088626720431,
a_halfV_trialTable_practice.csv,img/rightArrow.png,img/leftArrow.png,img/leftArrow.png,7,0,right,"[0, 0]","[0.036, 0]","[-0.036, 0]",img/neutralC/CFD-IM-726-248-N.jpg,"[0.03, 0.03]",0,0,0,0,0,6,6,18,,,,,,,,,,,1.5691382765531061,40.093605588015635,40.093605588015635,40.093605588015635,40.30721618401003,40.093605588015635,40.30721618401003,None,40.093605588015635,40.093605588015635,0,,,,,,,,,001,A,A,2022_May_19_1059,face_flanker_v1,2021.2.3,59.70088626720431,
a_halfV_trialTable_practice.csv,img/rightArrow.png,img/rightArrow.png,img/rightArrow.png,5,1,right,"[0, 0]","[0.036, 0]","[-0.036, 0]",img/neutralC/CFD-BF-012-001-N.jpg,"[0.03, 0.03]",0,0,0,0,0,7,7,19,,,,,,,,,,,1.6733466933867736,41.86206190800294,41.86206190800294,41.86206190800294,42.07331596099539,41.86206190800294,42.07331596099539,None,41.86206190800294,41.86206190800294,0,,,,,,,,,001,A,A,2022_May_19_1059,face_flanker_v1,2021.2.3,59.70088626720431,
a_halfV_trialTable_practice.csv,img/leftArrow.png,img/leftArrow.png,img/leftArrow.png,6,1,left,"[0, 0]","[0.036, 0]","[-0.036, 0]",img/neutralC/CFD-AM-211-052-N.jpg,"[0.03, 0.03]",0,0,0,0,0,8,8,4,,,,,,,,,,,1.5430861723446894,43.710895483003696,43.710895483003696,43.710895483003696,43.92274483299116,43.710895483003696,43.92274483299116,None,43.710895483003696,43.710895483003696,0,,,,,,,,,001,A,A,2022_May_19_1059,face_flanker_v1,2021.2.3,59.70088626720431,
a_halfV_trialTable_practice.csv,img/rightArrow.png,img/leftArrow.png,img/leftArrow.png,7,0,right,"[0, 0]","[0.036, 0]","[-0.036, 0]",img/neutralC/CFD-BM-032-024-N.jpg,"[0.03, 0.03]",0,0,0,0,0,9,9,11,,,,,,,,,,,1.779559118236473,45.43091225900571,45.43091225900571,45.43091225900571,45.639043556991965,45.43091225900571,45.639043556991965,None,45.43091225900571,45.43091225900571,0,,,,,,,,,001,A,A,2022_May_19_1059,face_flanker_v1,2021.2.3,59.70088626720431,
a_halfV_trialTable_practice.csv,img/leftArrow.png,img/rightArrow.png,img/rightArrow.png,8,0,left,"[0, 0]","[0.036, 0]","[-0.036, 0]",img/neutralC/CFD-BM-019-002-N.jpg,"[0.03, 0.03]",0,0,0,0,0,10,10,7,,,,,,,,,,,1.723446893787575,47.39443636499345,47.39443636499345,47.39443636499345,47.60560912801884,47.39443636499345,47.60560912801884,None,47.39443636499345,47.39443636499345,0,,,,,,,,,001,A,A,2022_May_19_1059,face_flanker_v1,2021.2.3,59.70088626720431,
a_halfV_trialTable_practice.csv,img/rightArrow.png,img/leftArrow.png,img/leftArrow.png,7,0,right,"[0, 0]","[0.036, 0]","[-0.036, 0]",img/neutralC/CFD-WF-238-023-N.jpg,"[0.03, 0.03]",0,0,0,0,0,11,11,16,,,,,,,,,,,1.9589178356713426,49.31858810200356,49.31858810200356,49.31858810200356,49.52143043099204,49.31858810200356,49.52143043099204,None,49.31858810200356,49.31858810200356,0,,,,,,,,,001,A,A,2022_May_19_1059,face_flanker_v1,2021.2.3,59.70088626720431,
a_halfV_trialTable_practice.csv,img/rightArrow.png,img/rightArrow.png,img/rightArrow.png,5,1,right,"[0, 0]","[0.036, 0]","[-0.036, 0]",img/neutralC/CFD-WM-218-074-N.jpg,"[0.03, 0.03]",0,0,0,0,0,12,12,12,,,,,,,,,,,1.688376753507014,51.46426496899221,51.46426496899221,51.46426496899221,51.671075941005256,51.46426496899221,51.671075941005256,None,51.46426496899221,51.46426496899221,0,,,,,,,,,001,A,A,2022_May_19_1059,face_flanker_v1,2021.2.3,59.70088626720431,
a_halfV_trialTable_practice.csv,img/rightArrow.png,img/rightArrow.png,img/rightArrow.png,5,1,right,"[0, 0]","[0.036, 0]","[-0.036, 0]",img/neutralC/CFD-WF-029-002-N.jpg,"[0.03, 0.03]",0,0,0,0,0,13,13,6,,,,,,,,,,,1.5430861723446894,53.35609891201602,53.35609891201602,53.35609891201602,53.57042090501636,53.35609891201602,53.57042090501636,None,53.35609891201602,53.35609891201602,0,,,,,,,,,001,A,A,2022_May_19_1059,face_flanker_v1,2021.2.3,59.70088626720431,
a_halfV_trialTable_practice.csv,img/leftArrow.png,img/rightArrow.png,img/rightArrow.png,8,0,left,"[0, 0]","[0.036, 0]","[-0.036, 0]",img/neutralC/CFD-WM-018-002-N.jpg,"[0.03, 0.03]",0,0,0,0,0,14,14,2,,,,,,,,,,,1.5410821643286572,55.07696127900272,55.07696127900272,55.07696127900272,55.286648706009146,55.07696127900272,55.286648706009146,None,55.07696127900272,55.07696127900272,0,,,,,,,,,001,A,A,2022_May_19_1059,face_flanker_v1,2021.2.3,59.70088626720431,
a_halfV_trialTable_practice.csv,img/rightArrow.png,img/leftArrow.png,img/leftArrow.png,7,0,right,"[0, 0]","[0.036, 0]","[-0.036, 0]",img/neutralC/CFD-AF-253-130-N.jpg,"[0.03, 0.03]",0,0,0,0,0,15,15,1,,,,,,,,,,,1.6503006012024048,56.788033609016566,56.788033609016566,56.788033609016566,57.00288442801684,56.788033609016566,57.00288442801684,None,56.788033609016566,56.788033609016566,0,,,,,,,,,001,A,A,2022_May_19_1059,face_flanker_v1,2021.2.3,59.70088626720431,
a_halfV_trialTable_practice.csv,img/leftArrow.png,img/rightArrow.png,img/rightArrow.png,8,0,left,"[0, 0]","[0.036, 0]","[-0.036, 0]",img/neutralC/CFD-MF-337-026-N.jpg,"[0.03, 0.03]",0,0,0,0,0,16,16,14,,,,,,,,,,,1.6533066132264531,58.64769372600131,58.64769372600131,58.64769372600131,58.852790962992,58.64769372600131,58.852790962992,None,58.64769372600131,58.64769372600131,0,,,,,,,,,001,A,A,2022_May_19_1059,face_flanker_v1,2021.2.3,59.70088626720431,
a_halfV_trialTable_practice.csv,img/rightArrow.png,img/rightArrow.png,img/rightArrow.png,5,1,right,"[0, 0]","[0.036, 0]","[-0.036, 0]",img/neutralC/CFD-IF-677-452-1-N.jpg,"[0.03, 0.03]",0,0,0,0,0,17,17,13,,,,,,,,,,,1.5871743486973948,60.48592190400814,60.48592190400814,60.48592190400814,60.685490347997984,60.48592190400814,60.685490347997984,None,60.48592190400814,60.48592190400814,0,,,,,,,,,001,A,A,2022_May_19_1059,face_flanker_v1,2021.2.3,59.70088626720431,
a_halfV_trialTable_practice.csv,img/leftArrow.png,img/leftArrow.png,img/leftArrow.png,6,1,left,"[0, 0]","[0.036, 0]","[-0.036, 0]",img/neutralC/CFD-IM-667-369-N.jpg,"[0.03, 0.03]",0,0,0,0,0,18,18,5,,,,,,,,,,,1.7605210420841684,62.28427303599892,62.28427303599892,62.28427303599892,62.48454972100444,62.28427303599892,62.48454972100444,None,62.28427303599892,62.28427303599892,0,,,,,,,,,001,A,A,2022_May_19_1059,face_flanker_v1,2021.2.3,59.70088626720431,
a_halfV_trialTable_practice.csv,img/rightArrow.png,img/leftArrow.png,img/leftArrow.png,7,0,right,"[0, 0]","[0.036, 0]","[-0.036, 0]",img/neutralC/CFD-WM-254-152-N.jpg,"[0.03, 0.03]",0,0,0,0,0,19,19,0,,,,,,,,,,,1.840681362725451,64.25854363001417,64.25854363001417,64.25854363001417,64.4676882729982,64.25854363001417,64.4676882729982,None,64.25854363001417,64.25854363001417,0,,,,,,,,,001,A,A,2022_May_19_1059,face_flanker_v1,2021.2.3,59.70088626720431,
a_halfV_trialTable_practice.csv,,,,,,,,,,,,0,0,0,0,,,,,,,,,,,,,,,,,,,,,,,,,,66.10102383801132,None,66.10102383801132,None,8,6.2634606619831175,66.10102383801132,None,001,A,A,2022_May_19_1059,face_flanker_v1,2021.2.3,59.70088626720431,
a_halfV_trialTable_practice.csv,img/leftArrow.png,img/leftArrow.png,img/leftArrow.png,6,1,left,"[0, 0]","[0.036, 0]","[-0.036, 0]",img/neutralC/CFD-IM-667-369-N.jpg,"[0.03, 0.03]",1,0,1,0,0,0,0,5,72.40433377100271,None,72.40433377100271,None,8,1.6726894839957822,72.40433377100271,None,74.13122507199296,None,1.503006012024048,76.34848940899246,None,76.34848940899246,76.54777301600552,76.34848940899246,76.54777301600552,None,76.34848940899246,None,0,,,,,,,,,001,A,A,2022_May_19_1059,face_flanker_v1,2021.2.3,59.70088626720431,
a_halfV_trialTable_practice.csv,img/rightArrow.png,img/rightArrow.png,img/rightArrow.png,5,1,right,"[0, 0]","[0.036, 0]","[-0.036, 0]",img/neutralC/CFD-IF-677-452-1-N.jpg,"[0.03, 0.03]",1,0,1,0,0,1,1,13,,,,,,,,,,,1.6382765531062122,78.0488788060029,78.0488788060029,78.0488788060029,78.26431156601757,78.0488788060029,78.26431156601757,None,78.0488788060029,78.0488788060029,0,,,,,,,,,001,A,A,2022_May_19_1059,face_flanker_v1,2021.2.3,59.70088626720431,
a_halfV_trialTable_practice.csv,img/leftArrow.png,img/rightArrow.png,img/rightArrow.png,8,0,left,"[0, 0]","[0.036, 0]","[-0.036, 0]",img/neutralC/CFD-WM-018-002-N.jpg,"[0.03, 0.03]",1,0,1,0,0,2,2,2,,,,,,,,,,,1.5060120240480963,79.87521556901629,79.87521556901629,79.87521556901629,80.07994438800961,79.87521556901629,80.07994438800961,None,79.87521556901629,79.87521556901629,0,,,,,,,,,001,A,A,2022_May_19_1059,face_flanker_v1,2021.2.3,59.70088626720431,
a_halfV_trialTable_practice.csv,img/rightArrow.png,img/leftArrow.png,img/leftArrow.png,7,0,right,"[0, 0]","[0.036, 0]","[-0.036, 0]",img/neutralC/CFD-WM-254-152-N.jpg,"[0.03, 0.03]",1,0,1,0,0,3,3,0,,,,,,,,,,,1.7935871743486973,81.58090383000672,81.58090383000672,81.58090383000672,81.79683835699689,81.58090383000672,81.79683835699689,None,81.58090383000672,81.58090383000672,0,,,,,,,,,001,A,A,2022_May_19_1059,face_flanker_v1,2021.2.3,59.70088626720431,
a_halfV_trialTable_practice.csv,img/rightArrow.png,img/rightArrow.png,img/rightArrow.png,5,1,right,"[0, 0]","[0.036, 0]","[-0.036, 0]",img/neutralC/CFD-WM-218-074-N.jpg,"[0.03, 0.03]",1,0,1,0,0,4,4,12,,,,,,,,,,,1.8296593186372745,83.55652926699258,83.55652926699258,83.55652926699258,83.76211221300764,83.55652926699258,83.76211221300764,None,83.55652926699258,83.55652926699258,0,,,,,,,,,001,A,A,2022_May_19_1059,face_flanker_v1,2021.2.3,59.70088626720431,
a_halfV_trialTable_practice.csv,img/leftArrow.png,img/rightArrow.png,img/rightArrow.png,8,0,left,"[0, 0]","[0.036, 0]","[-0.036, 0]",img/neutralC/CFD-BM-217-082-N.jpg,"[0.03, 0.03]",1,0,1,0,0,5,5,8,,,,,,,,,,,1.5821643286573146,85.57754851999925,85.57754851999925,85.57754851999925,85.77834782100399,85.57754851999925,85.77834782100399,None,85.57754851999925,85.57754851999925,0,,,,,,,,,001,A,A,2022_May_19_1059,face_flanker_v1,2021.2.3,59.70088626720431,
a_halfV_trialTable_practice.csv,img/rightArrow.png,img/leftArrow.png,img/leftArrow.png,7,0,right,"[0, 0]","[0.036, 0]","[-0.036, 0]",img/neutralC/CFD-BM-032-024-N.jpg,"[0.03, 0.03]",1,0,1,0,0,6,6,11,,,,,,,,,,,1.9659318637274548,87.36058673201478,87.36058673201478,87.36058673201478,87.56111823400715,87.36058673201478,87.56111823400715,None,87.36058673201478,87.36058673201478,0,,,,,,,,,001,A,A,2022_May_19_1059,face_flanker_v1,2021.2.3,59.70088626720431,
a_halfV_trialTable_practice.csv,img/leftArrow.png,img/leftArrow.png,img/leftArrow.png,6,1,left,"[0, 0]","[0.036, 0]","[-0.036, 0]",img/neutralC/CFD-AM-211-052-N.jpg,"[0.03, 0.03]",1,0,1,0,0,7,7,4,,,,,,,,,,,1.9248496993987976,89.50436310100486,89.50436310100486,89.50436310100486,89.71071030400344,89.50436310100486,89.71071030400344,None,89.50436310100486,89.50436310100486,0,,,,,,,,,001,A,A,2022_May_19_1059,face_flanker_v1,2021.2.3,59.70088626720431,
a_halfV_trialTable_practice.csv,img/leftArrow.png,img/leftArrow.png,img/leftArrow.png,6,1,left,"[0, 0]","[0.036, 0]","[-0.036, 0]",img/neutralC/CFD-BM-001-014-N.jpg,"[0.03, 0.03]",1,0,1,0,0,8,8,10,,,,,,,,,,,1.8807615230460921,91.62054680800065,91.62054680800065,91.62054680800065,91.82689517299877,91.62054680800065,91.82689517299877,None,91.62054680800065,91.62054680800065,0,,,,,,,,,001,A,A,2022_May_19_1059,face_flanker_v1,2021.2.3,59.70088626720431,
a_halfV_trialTable_practice.csv,img/rightArrow.png,img/leftArrow.png,img/leftArrow.png,7,0,right,"[0, 0]","[0.036, 0]","[-0.036, 0]",img/neutralC/CFD-WF-238-023-N.jpg,"[0.03, 0.03]",1,0,1,0,0,9,9,16,,,,,,,,,,,1.714428857715431,93.7063235900132,93.7063235900132,93.7063235900132,93.90949862301932,93.7063235900132,93.90949862301932,None,93.7063235900132,93.7063235900132,0,,,,,,,,,001,A,A,2022_May_19_1059,face_flanker_v1,2021.2.3,59.70088626720431,
a_halfV_trialTable_practice.csv,img/leftArrow.png,img/rightArrow.png,img/rightArrow.png,8,0,left,"[0, 0]","[0.036, 0]","[-0.036, 0]",img/neutralC/CFD-MF-337-026-N.jpg,"[0.03, 0.03]",1,0,1,0,0,10,10,14,,,,,,,,,,,1.7945891783567134,95.62726820600801,95.62726820600801,95.62726820600801,95.82579943499877,95.62726820600801,95.82579943499877,None,95.62726820600801,95.62726820600801,0,,,,,,,,,001,A,A,2022_May_19_1059,face_flanker_v1,2021.2.3,59.70088626720431,
a_halfV_trialTable_practice.csv,img/leftArrow.png,img/rightArrow.png,img/rightArrow.png,8,0,left,"[0, 0]","[0.036, 0]","[-0.036, 0]",img/neutralC/CFD-BM-019-002-N.jpg,"[0.03, 0.03]",1,0,1,0,0,11,11,7,,,,,,,,,,,1.5891783567134268,97.60242785399896,97.60242785399896,97.60242785399896,97.80900309301796,97.60242785399896,97.80900309301796,None,97.60242785399896,97.60242785399896,0,,,,,,,,,001,A,A,2022_May_19_1059,face_flanker_v1,2021.2.3,59.70088626720431,
a_halfV_trialTable_practice.csv,img/rightArrow.png,img/leftArrow.png,img/leftArrow.png,7,0,right,"[0, 0]","[0.036, 0]","[-0.036, 0]",img/neutralC/CFD-IM-726-248-N.jpg,"[0.03, 0.03]",1,0,1,0,0,12,12,18,,,,,,,,,,,1.5040080160320641,99.38321762901614,99.38321762901614,99.38321762901614,99.59147947400925,99.38321762901614,99.59147947400925,None,99.38321762901614,99.38321762901614,0,,,,,,,,,001,A,A,2022_May_19_1059,face_flanker_v1,2021.2.3,59.70088626720431,
a_halfV_trialTable_practice.csv,img/rightArrow.png,img/leftArrow.png,img/leftArrow.png,7,0,right,"[0, 0]","[0.036, 0]","[-0.036, 0]",img/neutralC/CFD-AF-253-130-N.jpg,"[0.03, 0.03]",1,0,1,0,0,13,13,1,,,,,,,,,,,1.597194388777555,101.05596363800578,101.05596363800578,101.05596363800578,101.25754299201071,101.05596363800578,101.25754299201071,None,101.05596363800578,101.05596363800578,0,,,,,,,,,001,A,A,2022_May_19_1059,face_flanker_v1,2021.2.3,59.70088626720431,
a_halfV_trialTable_practice.csv,img/rightArrow.png,img/rightArrow.png,img/rightArrow.png,5,1,right,"[0, 0]","[0.036, 0]","[-0.036, 0]",img/neutralC/CFD-BF-012-001-N.jpg,"[0.03, 0.03]",1,0,1,0,0,14,14,19,,,,,,,,,,,1.5070140280561122,102.84459367301315,102.84459367301315,102.84459367301315,103.05764728301438,102.84459367301315,103.05764728301438,None,102.84459367301315,102.84459367301315,0,,,,,,,,,001,A,A,2022_May_19_1059,face_flanker_v1,2021.2.3,59.70088626720431,
a_halfV_trialTable_practice.csv,img/leftArrow.png,img/leftArrow.png,img/leftArrow.png,6,1,left,"[0, 0]","[0.036, 0]","[-0.036, 0]",img/neutralC/CFD-WF-006-002-N.jpg,"[0.03, 0.03]",1,0,1,0,0,15,15,3,,,,,,,,,,,1.5551102204408818,104.58678204100579,104.58678204100579,104.58678204100579,104.79058772101416,104.58678204100579,104.79058772101416,None,104.58678204100579,104.58678204100579,0,,,,,,,,,001,A,A,2022_May_19_1059,face_flanker_v1,2021.2.3,59.70088626720431,
a_halfV_trialTable_practice.csv,img/leftArrow.png,img/rightArrow.png,img/rightArrow.png,8,0,left,"[0, 0]","[0.036, 0]","[-0.036, 0]",img/neutralC/CFD-LM-215-247-N.jpg,"[0.03, 0.03]",1,0,1,0,0,16,16,17,,,,,,,,,,,1.7404809619238477,106.3690606970049,106.3690606970049,106.3690606970049,106.5728136060061,106.3690606970049,106.5728136060061,None,106.3690606970049,106.3690606970049,0,,,,,,,,,001,A,A,2022_May_19_1059,face_flanker_v1,2021.2.3,59.70088626720431,
a_halfV_trialTable_practice.csv,img/rightArrow.png,img/rightArrow.png,img/rightArrow.png,5,1,right,"[0, 0]","[0.036, 0]","[-0.036, 0]",img/neutralC/CFD-AM-240-191-N.jpg,"[0.03, 0.03]",1,0,1,0,0,17,17,15,,,,,,,,,,,1.9218436873747493,108.30576744201244,108.30576744201244,108.30576744201244,108.50582999401377,108.30576744201244,108.50582999401377,None,108.30576744201244,108.30576744201244,0,,,,,,,,,001,A,A,2022_May_19_1059,face_flanker_v1,2021.2.3,59.70088626720431,
a_halfV_trialTable_practice.csv,img/rightArrow.png,img/rightArrow.png,img/rightArrow.png,5,1,right,"[0, 0]","[0.036, 0]","[-0.036, 0]",img/neutralC/CFD-WF-029-002-N.jpg,"[0.03, 0.03]",1,0,1,0,0,18,18,6,,,,,,,,,,,1.7364729458917836,110.43236027899547,110.43236027899547,110.43236027899547,110.63833348700427,110.43236027899547,110.63833348700427,None,110.43236027899547,110.43236027899547,0,,,,,,,,,001,A,A,2022_May_19_1059,face_flanker_v1,2021.2.3,59.70088626720431,
a_halfV_trialTable_practice.csv,img/leftArrow.png,img/leftArrow.png,img/leftArrow.png,6,1,left,"[0, 0]","[0.036, 0]","[-0.036, 0]",img/neutralC/CFD-IM-728-041-N.jpg,"[0.03, 0.03]",1,0,1,0,0,19,19,9,,,,,,,,,,,1.8026052104208417,112.3588920290058,112.3588920290058,112.3588920290058,112.57101175401476,112.3588920290058,112.57101175401476,None,112.3588920290058,112.3588920290058,0,,,,,,,,,001,A,A,2022_May_19_1059,face_flanker_v1,2021.2.3,59.70088626720431,
a_halfV_trialTable_practice.csv,,,,,,,,,,,,1,0,1,0,,,,,,,,,,,,,,,,,,,,,,,,,,114.17060130700702,None,114.17060130700702,None,8,237.42707083001733,114.17060130700702,None,001,A,A,2022_May_19_1059,face_flanker_v1,2021.2.3,59.70088626720431,
a_halfV_trialTable_practice.csv,img/leftArrow.png,img/rightArrow.png,img/rightArrow.png,8,0,left,"[0, 0]","[0.036, 0]","[-0.036, 0]",img/neutralC/CFD-LM-215-247-N.jpg,"[0.03, 0.03]",2,0,2,0,0,0,0,17,351.6630431720114,None,351.6630431720114,None,8,0.9065142880135681,351.6630431720114,None,352.62272536501405,None,1.6142284569138277,354.88498428999446,None,354.88498428999446,355.09108647701214,354.88498428999446,355.09108647701214,None,354.88498428999446,None,0,,,,,,,,,001,A,A,2022_May_19_1059,face_flanker_v1,2021.2.3,59.70088626720431,
a_halfV_trialTable_practice.csv,img/leftArrow.png,img/rightArrow.png,img/rightArrow.png,8,0,left,"[0, 0]","[0.036, 0]","[-0.036, 0]",img/neutralC/CFD-BM-217-082-N.jpg,"[0.03, 0.03]",2,0,2,0,0,1,1,8,,,,,,,,,,,1.9488977955911824,356.69261356201605,356.69261356201605,356.69261356201605,356.90586717100814,356.69261356201605,356.90586717100814,None,356.69261356201605,356.69261356201605,0,,,,,,,,,001,A,A,2022_May_19_1059,face_flanker_v1,2021.2.3,59.70088626720431,
a_halfV_trialTable_practice.csv,img/leftArrow.png,img/rightArrow.png,img/rightArrow.png,8,0,left,"[0, 0]","[0.036, 0]","[-0.036, 0]",img/neutralC/CFD-WM-018-002-N.jpg,"[0.03, 0.03]",2,0,2,0,0,2,2,2,,,,,,,,,,,1.7585170340681362,358.83227425499354,358.83227425499354,358.83227425499354,359.0382751169964,358.83227425499354,359.0382751169964,None,358.83227425499354,358.83227425499354,0,,,,,,,,,001,A,A,2022_May_19_1059,face_flanker_v1,2021.2.3,59.70088626720431,
a_halfV_trialTable_practice.csv,img/rightArrow.png,img/rightArrow.png,img/rightArrow.png,5,1,right,"[0, 0]","[0.036, 0]","[-0.036, 0]",img/neutralC/CFD-IF-677-452-1-N.jpg,"[0.03, 0.03]",2,0,2,0,0,3,3,13,,,,,,,,,,,1.6372745490981964,360.7916593019909,360.7916593019909,360.7916593019909,361.00498481001705,360.7916593019909,361.00498481001705,None,360.7916593019909,360.7916593019909,0,,,,,,,,,001,A,A,2022_May_19_1059,face_flanker_v1,2021.2.3,59.70088626720431,
a_halfV_trialTable_practice.csv,img/rightArrow.png,img/leftArrow.png,img/leftArrow.png,7,0,right,"[0, 0]","[0.036, 0]","[-0.036, 0]",img/neutralC/CFD-AF-253-130-N.jpg,"[0.03, 0.03]",2,0,2,0,0,4,4,1,,,,,,,,,,,1.970941883767535,362.6204876959964,362.6204876959964,362.6204876959964,362.8206218609994,362.6204876959964,362.8206218609994,None,362.6204876959964,362.6204876959964,0,,,,,,,,,001,A,A,2022_May_19_1059,face_flanker_v1,2021.2.3,59.70088626720431,
a_halfV_trialTable_practice.csv,img/leftArrow.png,img/leftArrow.png,img/leftArrow.png,6,1,left,"[0, 0]","[0.036, 0]","[-0.036, 0]",img/neutralC/CFD-AM-211-052-N.jpg,"[0.03, 0.03]",2,0,2,0,0,5,5,4,,,,,,,,,,,1.8637274549098197,364.8205760680139,364.8205760680139,364.8205760680139,365.0205801319971,364.8205760680139,365.0205801319971,None,364.8205760680139,364.8205760680139,0,,,,,,,,,001,A,A,2022_May_19_1059,face_flanker_v1,2021.2.3,59.70088626720431,
a_halfV_trialTable_practice.csv,img/rightArrow.png,img/leftArrow.png,img/leftArrow.png,7,0,right,"[0, 0]","[0.036, 0]","[-0.036, 0]",img/neutralC/CFD-IM-726-248-N.jpg,"[0.03, 0.03]",2,0,2,0,0,6,6,18,,,,,,,,,,,1.6703406813627255,366.8887315460015,366.8887315460015,366.8887315460015,367.1032537400024,366.8887315460015,367.1032537400024,None,366.8887315460015,366.8887315460015,0,,,,,,,,,001,A,A,2022_May_19_1059,face_flanker_v1,2021.2.3,59.70088626720431,
a_halfV_trialTable_practice.csv,img/leftArrow.png,img/leftArrow.png,img/leftArrow.png,6,1,left,"[0, 0]","[0.036, 0]","[-0.036, 0]",img/neutralC/CFD-IM-728-041-N.jpg,"[0.03, 0.03]",2,0,2,0,0,7,7,9,,,,,,,,,,,1.9859719438877754,368.7523845949909,368.7523845949909,368.7523845949909,368.9534712659952,368.7523845949909,368.9534712659952,None,368.7523845949909,368.7523845949909,0,,,,,,,,,001,A,A,2022_May_19_1059,face_flanker_v1,2021.2.3,59.70088626720431,
a_halfV_trialTable_practice.csv,img/rightArrow.png,img/rightArrow.png,img/rightArrow.png,5,1,right,"[0, 0]","[0.036, 0]","[-0.036, 0]",img/neutralC/CFD-WF-029-002-N.jpg,"[0.03, 0.03]",2,0,2,0,0,8,8,6,,,,,,,,,,,1.7424849699398797,370.95044041701476,370.95044041701476,370.95044041701476,371.1522157849977,370.95044041701476,371.1522157849977,None,370.95044041701476,370.95044041701476,0,,,,,,,,,001,A,A,2022_May_19_1059,face_flanker_v1,2021.2.3,59.70088626720431,
a_halfV_trialTable_practice.csv,img/leftArrow.png,img/leftArrow.png,img/leftArrow.png,6,1,left,"[0, 0]","[0.036, 0]","[-0.036, 0]",img/neutralC/CFD-IM-667-369-N.jpg,"[0.03, 0.03]",2,0,2,0,0,9,9,5,,,,,,,,,,,1.6793587174348696,372.91783798101824,372.91783798101824,372.91783798101824,373.1181804109947,372.91783798101824,373.1181804109947,None,372.91783798101824,372.91783798101824,0,,,,,,,,,001,A,A,2022_May_19_1059,face_flanker_v1,2021.2.3,59.70088626720431,
a_halfV_trialTable_practice.csv,img/rightArrow.png,img/rightArrow.png,img/rightArrow.png,5,1,right,"[0, 0]","[0.036, 0]","[-0.036, 0]",img/neutralC/CFD-WM-218-074-N.jpg,"[0.03, 0.03]",2,0,2,0,0,10,10,12,,,,,,,,,,,1.9248496993987976,374.7927263409947,374.7927263409947,374.7927263409947,375.0013428509992,374.7927263409947,375.0013428509992,None,374.7927263409947,374.7927263409947,0,,,,,,,,,001,A,A,2022_May_19_1059,face_flanker_v1,2021.2.3,59.70088626720431,
a_halfV_trialTable_practice.csv,img/leftArrow.png,img/leftArrow.png,img/leftArrow.png,6,1,left,"[0, 0]","[0.036, 0]","[-0.036, 0]",img/neutralC/CFD-WF-006-002-N.jpg,"[0.03, 0.03]",2,0,2,0,0,11,11,3,,,,,,,,,,,1.9659318637274548,376.9190353570157,376.9190353570157,376.9190353570157,377.133697843994,376.9190353570157,377.133697843994,None,376.9190353570157,376.9190353570157,0,,,,,,,,,001,A,A,2022_May_19_1059,face_flanker_v1,2021.2.3,59.70088626720431,
a_halfV_trialTable_practice.csv,img/rightArrow.png,img/leftArrow.png,img/leftArrow.png,7,0,right,"[0, 0]","[0.036, 0]","[-0.036, 0]",img/neutralC/CFD-WM-254-152-N.jpg,"[0.03, 0.03]",2,0,2,0,0,12,12,0,,,,,,,,,,,1.9358717434869739,379.07676909299335,379.07676909299335,379.07676909299335,379.2841310290096,379.07676909299335,379.2841310290096,None,379.07676909299335,379.07676909299335,0,,,,,,,,,001,A,A,2022_May_19_1059,face_flanker_v1,2021.2.3,59.70088626720431,
a_halfV_trialTable_practice.csv,img/rightArrow.png,img/leftArrow.png,img/leftArrow.png,7,0,right,"[0, 0]","[0.036, 0]","[-0.036, 0]",img/neutralC/CFD-WF-238-023-N.jpg,"[0.03, 0.03]",2,0,2,0,0,13,13,16,,,,,,,,,,,1.6402805611222446,381.2236518849968,381.2236518849968,381.2236518849968,381.4326573360013,381.2236518849968,381.4326573360013,None,381.2236518849968,381.2236518849968,0,,,,,,,,,001,A,A,2022_May_19_1059,face_flanker_v1,2021.2.3,59.70088626720431,
a_halfV_trialTable_practice.csv,img/leftArrow.png,img/leftArrow.png,img/leftArrow.png,6,1,left,"[0, 0]","[0.036, 0]","[-0.036, 0]",img/neutralC/CFD-BM-001-014-N.jpg,"[0.03, 0.03]",2,0,2,0,0,14,14,10,,,,,,,,,,,1.6723446893787575,383.06120453201584,383.06120453201584,383.06120453201584,383.2656150140101,383.06120453201584,383.2656150140101,None,383.06120453201584,383.06120453201584,0,,,,,,,,,001,A,A,2022_May_19_1059,face_flanker_v1,2021.2.3,59.70088626720431,
a_halfV_trialTable_practice.csv,img/rightArrow.png,img/leftArrow.png,img/leftArrow.png,7,0,right,"[0, 0]","[0.036, 0]","[-0.036, 0]",img/neutralC/CFD-BM-032-024-N.jpg,"[0.03, 0.03]",2,0,2,0,0,15,15,11,,,,,,,,,,,1.655310621242485,384.93693411399727,384.93693411399727,384.93693411399727,385.1489182570076,384.93693411399727,385.1489182570076,None,384.93693411399727,384.93693411399727,0,,,,,,,,,001,A,A,2022_May_19_1059,face_flanker_v1,2021.2.3,59.70088626720431,
a_halfV_trialTable_practice.csv,img/rightArrow.png,img/rightArrow.png,img/rightArrow.png,5,1,right,"[0, 0]","[0.036, 0]","[-0.036, 0]",img/neutralC/CFD-BF-012-001-N.jpg,"[0.03, 0.03]",2,0,2,0,0,16,16,19,,,,,,,,,,,1.6062124248496994,386.7991737840057,386.7991737840057,386.7991737840057,387.01459947400144,386.7991737840057,387.01459947400144,None,386.7991737840057,386.7991737840057,0,,,,,,,,,001,A,A,2022_May_19_1059,face_flanker_v1,2021.2.3,59.70088626720431,
a_halfV_trialTable_practice.csv,img/rightArrow.png,img/rightArrow.png,img/rightArrow.png,5,1,right,"[0, 0]","[0.036, 0]","[-0.036, 0]",img/neutralC/CFD-AM-240-191-N.jpg,"[0.03, 0.03]",2,0,2,0,0,17,17,15,,,,,,,,,,,1.716432865731463,388.5856367450033,388.5856367450033,388.5856367450033,388.7988811219984,388.5856367450033,388.7988811219984,None,388.5856367450033,388.5856367450033,0,,,,,,,,,001,A,A,2022_May_19_1059,face_flanker_v1,2021.2.3,59.70088626720431,
,,,,,,,,,,,,,,,,,,,,,,,,,,,,,,1.9318637274549098,,,,,,,,,,,,,,,,,,,,,,,,,,
