whichBlock,middleStim,leftStim,rightStim,stimNum,congruent,target,locationC,locationR,locationL,straightFace,imageSize,prac_block_loop.thisRepN,prac_block_loop.thisTrialN,prac_block_loop.thisN,prac_block_loop.thisIndex,prac_trial_loop.thisRepN,prac_trial_loop.thisTrialN,prac_trial_loop.thisN,prac_trial_loop.thisIndex,prac_blockText.started,prac_blockText.stopped,prac_reminder_text.started,prac_reminder_text.stopped,prac_reminder_keyResp.keys,prac_reminder_keyResp.rt,prac_reminder_keyResp.started,prac_reminder_keyResp.stopped,initFixation_img.started,initFixation_img.stopped,ISI,bigFace.started,bigFace.stopped,cover_background_2.started,cover_background_2.stopped,prac_centerImg.started,prac_centerImg.stopped,prac_stim_keyResp.keys,prac_stim_keyResp.started,prac_stim_keyResp.stopped,accuracy,prac_blockFeed_text.started,prac_blockFeed_text.stopped,prac_pressContinue.started,prac_pressContinue.stopped,prac_blockFeed_keyResp.keys,prac_blockFeed_keyResp.rt,prac_blockFeed_keyResp.started,prac_blockFeed_keyResp.stopped,id,cb,friendly,errorComm,date,expName,psychopyVersion,frameRate,
a_halfV_trialTable_practice.csv,img/leftArrow.png,img/leftArrow.png,img/leftArrow.png,6,1,left,"[0, 0]","[0.033, 0]","[-0.033, 0]",img/neutralC/CFD-BF-213-188-N.jpg,"[0.03, 0.03]",0,0,0,0,0,0,0,10,83.13645269999688,None,83.13645269999688,None,8,1.415498700007447,83.13645269999688,None,84.60322210000595,None,1.8236472945891782,86.7542981000006,None,86.7542981000006,86.95444719999796,86.7542981000006,86.95444719999796,None,86.7542981000006,None,0,,,,,,,,,999,A,A,A,2022-05-31_11h24.17.174,face_flanker_v1,2022.1.3,59.85762265819145,
a_halfV_trialTable_practice.csv,img/rightArrow.png,img/rightArrow.png,img/rightArrow.png,5,1,right,"[0, 0]","[0.033, 0]","[-0.033, 0]",img/neutralC/CFD-MM-306-010-N.jpg,"[0.03, 0.03]",0,0,0,0,0,1,1,15,,,,,,,,,,,1.814629258517034,88.69577340000251,88.69577340000251,88.69577340000251,88.90629600000102,88.69577340000251,88.90629600000102,None,88.69577340000251,88.69577340000251,0,,,,,,,,,999,A,A,A,2022-05-31_11h24.17.174,face_flanker_v1,2022.1.3,59.85762265819145,
a_halfV_trialTable_practice.csv,img/leftArrow.png,img/rightArrow.png,img/rightArrow.png,8,0,left,"[0, 0]","[0.033, 0]","[-0.033, 0]",img/neutralC/CFD-WM-242-011-N.jpg,"[0.03, 0.03]",0,0,0,0,0,2,2,14,,,,,,,,,,,1.5120240480961924,90.6340707000054,90.6340707000054,90.6340707000054,90.84168569999747,90.6340707000054,90.84168569999747,None,90.6340707000054,90.6340707000054,0,,,,,,,,,999,A,A,A,2022-05-31_11h24.17.174,face_flanker_v1,2022.1.3,59.85762265819145,
a_halfV_trialTable_practice.csv,img/rightArrow.png,img/rightArrow.png,img/rightArrow.png,5,1,right,"[0, 0]","[0.033, 0]","[-0.033, 0]",img/neutralC/CFD-BF-212-315-N.jpg,"[0.03, 0.03]",0,0,0,0,0,3,3,13,,,,,,,,,,,1.942885771543086,92.28031590000319,92.28031590000319,92.28031590000319,92.4932731000008,92.28031590000319,92.4932731000008,None,92.28031590000319,92.28031590000319,0,,,,,,,,,999,A,A,A,2022-05-31_11h24.17.174,face_flanker_v1,2022.1.3,59.85762265819145,
a_halfV_trialTable_practice.csv,img/rightArrow.png,img/rightArrow.png,img/rightArrow.png,5,1,right,"[0, 0]","[0.033, 0]","[-0.033, 0]",img/neutralC/CFD-WF-008-002-N.jpg,"[0.03, 0.03]",0,0,0,0,0,4,4,19,,,,,,,,,,,1.971943887775551,94.34196990000783,94.34196990000783,94.34196990000783,94.5452202000015,94.34196990000783,94.5452202000015,None,94.34196990000783,94.34196990000783,0,,,,,,,,,999,A,A,A,2022-05-31_11h24.17.174,face_flanker_v1,2022.1.3,59.85762265819145,
a_halfV_trialTable_practice.csv,img/rightArrow.png,img/rightArrow.png,img/rightArrow.png,5,1,right,"[0, 0]","[0.033, 0]","[-0.033, 0]",img/neutralC/CFD-WF-036-023-N.jpg,"[0.03, 0.03]",0,0,0,0,0,5,5,6,,,,,,,,,,,1.5100200400801602,96.42905790000805,96.42905790000805,96.42905790000805,96.63079370000924,96.42905790000805,96.63079370000924,None,96.42905790000805,96.42905790000805,0,,,,,,,,,999,A,A,A,2022-05-31_11h24.17.174,face_flanker_v1,2022.1.3,59.85762265819145,
a_halfV_trialTable_practice.csv,img/rightArrow.png,img/leftArrow.png,img/leftArrow.png,7,0,right,"[0, 0]","[0.033, 0]","[-0.033, 0]",img/neutralC/CFD-IM-671-601-N.jpg,"[0.03, 0.03]",0,0,0,0,0,6,6,18,,,,,,,,,,,1.7404809619238477,98.06226170000446,98.06226170000446,98.06226170000446,98.26581070000248,98.06226170000446,98.26581070000248,None,98.06226170000446,98.06226170000446,0,,,,,,,,,999,A,A,A,2022-05-31_11h24.17.174,face_flanker_v1,2022.1.3,59.85762265819145,
a_halfV_trialTable_practice.csv,img/leftArrow.png,img/rightArrow.png,img/rightArrow.png,8,0,left,"[0, 0]","[0.033, 0]","[-0.033, 0]",img/neutralC/CFD-LM-226-175-N.jpg,"[0.03, 0.03]",0,0,0,0,0,7,7,17,,,,,,,,,,,1.5390781563126252,99.92354820000764,99.92354820000764,99.92354820000764,100.13427870000305,99.92354820000764,100.13427870000305,None,99.92354820000764,99.92354820000764,0,,,,,,,,,999,A,A,A,2022-05-31_11h24.17.174,face_flanker_v1,2022.1.3,59.85762265819145,
a_halfV_trialTable_practice.csv,img/rightArrow.png,img/leftArrow.png,img/leftArrow.png,7,0,right,"[0, 0]","[0.033, 0]","[-0.033, 0]",img/neutralC/CFD-WM-228-065-N.jpg,"[0.03, 0.03]",0,0,0,0,0,8,8,16,,,,,,,,,,,1.9168336673346693,101.58538289999706,101.58538289999706,101.58538289999706,101.78608010000607,101.58538289999706,101.78608010000607,None,101.58538289999706,101.58538289999706,0,,,,,,,,,999,A,A,A,2022-05-31_11h24.17.174,face_flanker_v1,2022.1.3,59.85762265819145,
a_halfV_trialTable_practice.csv,img/leftArrow.png,img/rightArrow.png,img/rightArrow.png,8,0,left,"[0, 0]","[0.033, 0]","[-0.033, 0]",img/neutralC/CFD-IM-627-178-N.jpg,"[0.03, 0.03]",0,0,0,0,0,9,9,7,,,,,,,,,,,1.6132264529058116,103.61865489999764,103.61865489999764,103.61865489999764,103.82128679999732,103.61865489999764,103.82128679999732,None,103.61865489999764,103.61865489999764,0,,,,,,,,,999,A,A,A,2022-05-31_11h24.17.174,face_flanker_v1,2022.1.3,59.85762265819145,
a_halfV_trialTable_practice.csv,img/leftArrow.png,img/leftArrow.png,img/leftArrow.png,6,1,left,"[0, 0]","[0.033, 0]","[-0.033, 0]",img/neutralC/CFD-BM-041-035-N.jpg,"[0.03, 0.03]",0,0,0,0,0,10,10,4,,,,,,,,,,,1.8356713426853708,105.35011450000457,105.35011450000457,105.35011450000457,105.55622440000298,105.35011450000457,105.55622440000298,None,105.35011450000457,105.35011450000457,0,,,,,,,,,999,A,A,A,2022-05-31_11h24.17.174,face_flanker_v1,2022.1.3,59.85762265819145,
a_halfV_trialTable_practice.csv,img/leftArrow.png,img/leftArrow.png,img/leftArrow.png,6,1,left,"[0, 0]","[0.033, 0]","[-0.033, 0]",img/neutralC/CFD-IF-634-382-N.jpg,"[0.03, 0.03]",0,0,0,0,0,11,11,9,,,,,,,,,,,1.9879759519038076,107.34572979999939,107.34572979999939,107.34572979999939,107.5583842000051,107.34572979999939,107.5583842000051,None,107.34572979999939,107.34572979999939,0,,,,,,,,,999,A,A,A,2022-05-31_11h24.17.174,face_flanker_v1,2022.1.3,59.85762265819145,
a_halfV_trialTable_practice.csv,img/rightArrow.png,img/rightArrow.png,img/rightArrow.png,5,1,right,"[0, 0]","[0.033, 0]","[-0.033, 0]",img/neutralC/CFD-IM-674-281-N.jpg,"[0.03, 0.03]",0,0,0,0,0,12,12,12,,,,,,,,,,,1.7254509018036073,109.46906529999978,109.46906529999978,109.46906529999978,109.67700920000789,109.46906529999978,109.67700920000789,None,109.46906529999978,109.46906529999978,0,,,,,,,,,999,A,A,A,2022-05-31_11h24.17.174,face_flanker_v1,2022.1.3,59.85762265819145,
a_halfV_trialTable_practice.csv,img/leftArrow.png,img/rightArrow.png,img/rightArrow.png,8,0,left,"[0, 0]","[0.033, 0]","[-0.033, 0]",img/neutralC/CFD-WF-223-133-N.jpg,"[0.03, 0.03]",0,0,0,0,0,13,13,8,,,,,,,,,,,1.8376753507014028,111.30528820000472,111.30528820000472,111.30528820000472,111.51214520000212,111.30528820000472,111.51214520000212,None,111.30528820000472,111.30528820000472,0,,,,,,,,,999,A,A,A,2022-05-31_11h24.17.174,face_flanker_v1,2022.1.3,59.85762265819145,
a_halfV_trialTable_practice.csv,img/rightArrow.png,img/leftArrow.png,img/leftArrow.png,7,0,right,"[0, 0]","[0.033, 0]","[-0.033, 0]",img/neutralC/CFD-AM-235-241-N.jpg,"[0.03, 0.03]",0,0,0,0,0,14,14,0,,,,,,,,,,,1.503006012024048,113.25470610000775,113.25470610000775,113.25470610000775,113.46412390000478,113.25470610000775,113.46412390000478,None,113.25470610000775,113.25470610000775,0,,,,,,,,,999,A,A,A,2022-05-31_11h24.17.174,face_flanker_v1,2022.1.3,59.85762265819145,
a_halfV_trialTable_practice.csv,img/rightArrow.png,img/leftArrow.png,img/leftArrow.png,7,0,right,"[0, 0]","[0.033, 0]","[-0.033, 0]",img/neutralC/CFD-AM-243-212-N.jpg,"[0.03, 0.03]",0,0,0,0,0,15,15,11,,,,,,,,,,,1.870741482965932,114.87235730000248,114.87235730000248,114.87235730000248,115.08236710001074,114.87235730000248,115.08236710001074,None,114.87235730000248,114.87235730000248,0,,,,,,,,,999,A,A,A,2022-05-31_11h24.17.174,face_flanker_v1,2022.1.3,59.85762265819145,
a_halfV_trialTable_practice.csv,img/leftArrow.png,img/rightArrow.png,img/rightArrow.png,8,0,left,"[0, 0]","[0.033, 0]","[-0.033, 0]",img/neutralC/CFD-MF-342-022-N.jpg,"[0.03, 0.03]",0,0,0,0,0,16,16,2,,,,,,,,,,,1.8967935871743486,116.86588740001025,116.86588740001025,116.86588740001025,117.06796200000099,116.86588740001025,117.06796200000099,None,116.86588740001025,116.86588740001025,0,,,,,,,,,999,A,A,A,2022-05-31_11h24.17.174,face_flanker_v1,2022.1.3,59.85762265819145,
a_halfV_trialTable_practice.csv,img/leftArrow.png,img/leftArrow.png,img/leftArrow.png,6,1,left,"[0, 0]","[0.033, 0]","[-0.033, 0]",img/neutralC/CFD-BF-014-002-N.jpg,"[0.03, 0.03]",0,0,0,0,0,17,17,5,,,,,,,,,,,1.8156312625250501,118.89623090000532,118.89623090000532,118.89623090000532,119.10307820000162,118.89623090000532,119.10307820000162,None,118.89623090000532,118.89623090000532,0,,,,,,,,,999,A,A,A,2022-05-31_11h24.17.174,face_flanker_v1,2022.1.3,59.85762265819145,
a_halfV_trialTable_practice.csv,img/leftArrow.png,img/leftArrow.png,img/leftArrow.png,6,1,left,"[0, 0]","[0.033, 0]","[-0.033, 0]",img/neutralC/CFD-BF-228-212-N.jpg,"[0.03, 0.03]",0,0,0,0,0,18,18,3,,,,,,,,,,,1.687374749498998,120.86179180000909,120.86179180000909,120.86179180000909,121.07190989999799,120.86179180000909,121.07190989999799,None,120.86179180000909,120.86179180000909,0,,,,,,,,,999,A,A,A,2022-05-31_11h24.17.174,face_flanker_v1,2022.1.3,59.85762265819145,
a_halfV_trialTable_practice.csv,img/rightArrow.png,img/leftArrow.png,img/leftArrow.png,7,0,right,"[0, 0]","[0.033, 0]","[-0.033, 0]",img/neutralC/CFD-MF-328-020-N.jpg,"[0.03, 0.03]",0,0,0,0,0,19,19,1,,,,,,,,,,,1.6623246492985972,122.67378290000488,122.67378290000488,122.67378290000488,122.87374340000679,122.67378290000488,122.87374340000679,None,122.67378290000488,122.67378290000488,0,,,,,,,,,999,A,A,A,2022-05-31_11h24.17.174,face_flanker_v1,2022.1.3,59.85762265819145,
a_halfV_trialTable_practice.csv,,,,,,,,,,,,0,0,0,0,,,,,,,,,,,,,,,,,,,,,,,,,,124.34051460000046,None,124.34051460000046,None,8,1.844122199996491,124.34051460000046,None,999,A,A,A,2022-05-31_11h24.17.174,face_flanker_v1,2022.1.3,59.85762265819145,
a_halfV_trialTable_practice.csv,img/leftArrow.png,img/leftArrow.png,img/leftArrow.png,6,1,left,"[0, 0]","[0.033, 0]","[-0.033, 0]",img/neutralC/CFD-BM-041-035-N.jpg,"[0.03, 0.03]",1,0,1,0,0,0,0,4,126.21182310000586,None,126.21182310000586,None,8,0.38795579998986796,126.21182310000586,None,126.63550080001005,None,1.9088176352705408,128.771645300003,None,128.771645300003,128.9794930000062,128.771645300003,128.9794930000062,None,128.771645300003,None,0,,,,,,,,,999,A,A,A,2022-05-31_11h24.17.174,face_flanker_v1,2022.1.3,59.85762265819145,
a_halfV_trialTable_practice.csv,img/leftArrow.png,img/rightArrow.png,img/rightArrow.png,8,0,left,"[0, 0]","[0.033, 0]","[-0.033, 0]",img/neutralC/CFD-MF-342-022-N.jpg,"[0.03, 0.03]",1,0,1,0,0,1,1,2,,,,,,,,,,,1.874749498997996,130.80071080000198,130.80071080000198,130.80071080000198,131.01501290001033,130.80071080000198,131.01501290001033,None,130.80071080000198,130.80071080000198,0,,,,,,,,,999,A,A,A,2022-05-31_11h24.17.174,face_flanker_v1,2022.1.3,59.85762265819145,
a_halfV_trialTable_practice.csv,img/rightArrow.png,img/leftArrow.png,img/leftArrow.png,7,0,right,"[0, 0]","[0.033, 0]","[-0.033, 0]",img/neutralC/CFD-MF-328-020-N.jpg,"[0.03, 0.03]",1,0,1,0,0,2,2,1,,,,,,,,,,,1.940881763527054,132.79938810000021,132.79938810000021,132.79938810000021,133.0005269999965,132.79938810000021,133.0005269999965,None,132.79938810000021,132.79938810000021,0,,,,,,,,,999,A,A,A,2022-05-31_11h24.17.174,face_flanker_v1,2022.1.3,59.85762265819145,
a_halfV_trialTable_practice.csv,img/rightArrow.png,img/leftArrow.png,img/leftArrow.png,7,0,right,"[0, 0]","[0.033, 0]","[-0.033, 0]",img/neutralC/CFD-AM-243-212-N.jpg,"[0.03, 0.03]",1,0,1,0,0,3,3,11,,,,,,,,,,,1.8386773547094188,134.85747440000705,134.85747440000705,134.85747440000705,135.0690453999996,134.85747440000705,135.0690453999996,None,134.85747440000705,134.85747440000705,0,,,,,,,,,999,A,A,A,2022-05-31_11h24.17.174,face_flanker_v1,2022.1.3,59.85762265819145,
a_halfV_trialTable_practice.csv,img/leftArrow.png,img/leftArrow.png,img/leftArrow.png,6,1,left,"[0, 0]","[0.033, 0]","[-0.033, 0]",img/neutralC/CFD-BF-228-212-N.jpg,"[0.03, 0.03]",1,0,1,0,0,4,4,3,,,,,,,,,,,1.8847695390781565,136.81361209999886,136.81361209999886,136.81361209999886,137.0212443000055,136.81361209999886,137.0212443000055,None,136.81361209999886,136.81361209999886,0,,,,,,,,,999,A,A,A,2022-05-31_11h24.17.174,face_flanker_v1,2022.1.3,59.85762265819145,
a_halfV_trialTable_practice.csv,img/rightArrow.png,img/leftArrow.png,img/leftArrow.png,7,0,right,"[0, 0]","[0.033, 0]","[-0.033, 0]",img/neutralC/CFD-WM-228-065-N.jpg,"[0.03, 0.03]",1,0,1,0,0,5,5,16,,,,,,,,,,,1.7364729458917836,138.82024260000617,138.82024260000617,138.82024260000617,139.0229829000018,138.82024260000617,139.0229829000018,None,138.82024260000617,138.82024260000617,0,,,,,,,,,999,A,A,A,2022-05-31_11h24.17.174,face_flanker_v1,2022.1.3,59.85762265819145,
a_halfV_trialTable_practice.csv,img/rightArrow.png,img/rightArrow.png,img/rightArrow.png,5,1,right,"[0, 0]","[0.033, 0]","[-0.033, 0]",img/neutralC/CFD-IM-674-281-N.jpg,"[0.03, 0.03]",1,0,1,0,0,6,6,12,,,,,,,,,,,1.844689378757515,140.66986409999663,140.66986409999663,140.66986409999663,140.87480160000268,140.66986409999663,140.87480160000268,None,140.66986409999663,140.66986409999663,0,,,,,,,,,999,A,A,A,2022-05-31_11h24.17.174,face_flanker_v1,2022.1.3,59.85762265819145,
a_halfV_trialTable_practice.csv,img/rightArrow.png,img/rightArrow.png,img/rightArrow.png,5,1,right,"[0, 0]","[0.033, 0]","[-0.033, 0]",img/neutralC/CFD-WF-008-002-N.jpg,"[0.03, 0.03]",1,0,1,0,0,7,7,19,,,,,,,,,,,1.5140280561122246,142.6424987000064,142.6424987000064,142.6424987000064,142.8433395000029,142.6424987000064,142.8433395000029,None,142.6424987000064,142.6424987000064,0,,,,,,,,,999,A,A,A,2022-05-31_11h24.17.174,face_flanker_v1,2022.1.3,59.85762265819145,
a_halfV_trialTable_practice.csv,img/rightArrow.png,img/leftArrow.png,img/leftArrow.png,7,0,right,"[0, 0]","[0.033, 0]","[-0.033, 0]",img/neutralC/CFD-AM-235-241-N.jpg,"[0.03, 0.03]",1,0,1,0,0,8,8,0,,,,,,,,,,,1.6202404809619237,144.27092140000605,144.27092140000605,144.27092140000605,144.47855980000168,144.27092140000605,144.47855980000168,None,144.27092140000605,144.27092140000605,0,,,,,,,,,999,A,A,A,2022-05-31_11h24.17.174,face_flanker_v1,2022.1.3,59.85762265819145,
a_halfV_trialTable_practice.csv,img/leftArrow.png,img/leftArrow.png,img/leftArrow.png,6,1,left,"[0, 0]","[0.033, 0]","[-0.033, 0]",img/neutralC/CFD-IF-634-382-N.jpg,"[0.03, 0.03]",1,0,1,0,0,9,9,9,,,,,,,,,,,1.8116232464929858,146.0596513000055,146.0596513000055,146.0596513000055,146.26379969999834,146.0596513000055,146.26379969999834,None,146.0596513000055,146.0596513000055,0,,,,,,,,,999,A,A,A,2022-05-31_11h24.17.174,face_flanker_v1,2022.1.3,59.85762265819145,
a_halfV_trialTable_practice.csv,img/leftArrow.png,img/rightArrow.png,img/rightArrow.png,8,0,left,"[0, 0]","[0.033, 0]","[-0.033, 0]",img/neutralC/CFD-WF-223-133-N.jpg,"[0.03, 0.03]",1,0,1,0,0,10,10,8,,,,,,,,,,,1.7304609218436875,148.00634079999872,148.00634079999872,148.00634079999872,148.21542670000053,148.00634079999872,148.21542670000053,None,148.00634079999872,148.00634079999872,0,,,,,,,,,999,A,A,A,2022-05-31_11h24.17.174,face_flanker_v1,2022.1.3,59.85762265819145,
a_halfV_trialTable_practice.csv,img/rightArrow.png,img/leftArrow.png,img/leftArrow.png,7,0,right,"[0, 0]","[0.033, 0]","[-0.033, 0]",img/neutralC/CFD-IM-671-601-N.jpg,"[0.03, 0.03]",1,0,1,0,0,11,11,18,,,,,,,,,,,1.5230460921843687,149.8634061000048,149.8634061000048,149.8634061000048,150.06734330000472,149.8634061000048,150.06734330000472,None,149.8634061000048,149.8634061000048,0,,,,,,,,,999,A,A,A,2022-05-31_11h24.17.174,face_flanker_v1,2022.1.3,59.85762265819145,
a_halfV_trialTable_practice.csv,img/rightArrow.png,img/rightArrow.png,img/rightArrow.png,5,1,right,"[0, 0]","[0.033, 0]","[-0.033, 0]",img/neutralC/CFD-BF-212-315-N.jpg,"[0.03, 0.03]",1,0,1,0,0,12,12,13,,,,,,,,,,,1.6202404809619237,151.51395629999752,151.51395629999752,151.51395629999752,151.71887250000145,151.51395629999752,151.71887250000145,None,151.51395629999752,151.51395629999752,0,,,,,,,,,999,A,A,A,2022-05-31_11h24.17.174,face_flanker_v1,2022.1.3,59.85762265819145,
a_halfV_trialTable_practice.csv,img/leftArrow.png,img/rightArrow.png,img/rightArrow.png,8,0,left,"[0, 0]","[0.033, 0]","[-0.033, 0]",img/neutralC/CFD-LM-226-175-N.jpg,"[0.03, 0.03]",1,0,1,0,0,13,13,17,,,,,,,,,,,1.5811623246492987,153.24765640000987,153.24765640000987,153.24765640000987,153.45408480000333,153.24765640000987,153.45408480000333,None,153.24765640000987,153.24765640000987,0,,,,,,,,,999,A,A,A,2022-05-31_11h24.17.174,face_flanker_v1,2022.1.3,59.85762265819145,
a_halfV_trialTable_practice.csv,img/leftArrow.png,img/leftArrow.png,img/leftArrow.png,6,1,left,"[0, 0]","[0.033, 0]","[-0.033, 0]",img/neutralC/CFD-BF-213-188-N.jpg,"[0.03, 0.03]",1,0,1,0,0,14,14,10,,,,,,,,,,,1.5701402805611222,154.95395090000238,154.95395090000238,154.95395090000238,155.155898099998,154.95395090000238,155.155898099998,None,154.95395090000238,154.95395090000238,0,,,,,,,,,999,A,A,A,2022-05-31_11h24.17.174,face_flanker_v1,2022.1.3,59.85762265819145,
a_halfV_trialTable_practice.csv,img/leftArrow.png,img/rightArrow.png,img/rightArrow.png,8,0,left,"[0, 0]","[0.033, 0]","[-0.033, 0]",img/neutralC/CFD-WM-242-011-N.jpg,"[0.03, 0.03]",1,0,1,0,0,15,15,14,,,,,,,,,,,1.9639278557114228,156.65298359999724,156.65298359999724,156.65298359999724,156.85747020000417,156.65298359999724,156.85747020000417,None,156.65298359999724,156.65298359999724,0,,,,,,,,,999,A,A,A,2022-05-31_11h24.17.174,face_flanker_v1,2022.1.3,59.85762265819145,
a_halfV_trialTable_practice.csv,img/leftArrow.png,img/leftArrow.png,img/leftArrow.png,6,1,left,"[0, 0]","[0.033, 0]","[-0.033, 0]",img/neutralC/CFD-BF-014-002-N.jpg,"[0.03, 0.03]",1,0,1,0,0,16,16,5,,,,,,,,,,,1.975951903807615,158.77687630000582,158.77687630000582,158.77687630000582,158.975981399999,158.77687630000582,158.975981399999,None,158.77687630000582,158.77687630000582,0,,,,,,,,,999,A,A,A,2022-05-31_11h24.17.174,face_flanker_v1,2022.1.3,59.85762265819145,
a_halfV_trialTable_practice.csv,img/rightArrow.png,img/rightArrow.png,img/rightArrow.png,5,1,right,"[0, 0]","[0.033, 0]","[-0.033, 0]",img/neutralC/CFD-MM-306-010-N.jpg,"[0.03, 0.03]",1,0,1,0,0,17,17,15,,,,,,,,,,,1.8016032064128256,160.87215190001007,160.87215190001007,160.87215190001007,161.07868600000802,160.87215190001007,161.07868600000802,None,160.87215190001007,160.87215190001007,0,,,,,,,,,999,A,A,A,2022-05-31_11h24.17.174,face_flanker_v1,2022.1.3,59.85762265819145,
a_halfV_trialTable_practice.csv,img/leftArrow.png,img/rightArrow.png,img/rightArrow.png,8,0,left,"[0, 0]","[0.033, 0]","[-0.033, 0]",img/neutralC/CFD-IM-627-178-N.jpg,"[0.03, 0.03]",1,0,1,0,0,18,18,7,,,,,,,,,,,1.8907815631262523,162.79427150000993,162.79427150000993,162.79427150000993,162.9969437999971,162.79427150000993,162.9969437999971,None,162.79427150000993,162.79427150000993,0,,,,,,,,,999,A,A,A,2022-05-31_11h24.17.174,face_flanker_v1,2022.1.3,59.85762265819145,
a_halfV_trialTable_practice.csv,img/rightArrow.png,img/rightArrow.png,img/rightArrow.png,5,1,right,"[0, 0]","[0.033, 0]","[-0.033, 0]",img/neutralC/CFD-WF-036-023-N.jpg,"[0.03, 0.03]",1,0,1,0,0,19,19,6,,,,,,,,,,,1.502004008016032,164.814443700001,164.814443700001,164.814443700001,165.01564900000812,164.814443700001,165.01564900000812,None,164.814443700001,164.814443700001,0,,,,,,,,,999,A,A,A,2022-05-31_11h24.17.174,face_flanker_v1,2022.1.3,59.85762265819145,
