whichBlock,middleStim,leftStim,rightStim,stimNum,congruent,target,locationC,locationR,locationL,straightFace,prac_block_loop.thisRepN,prac_block_loop.thisTrialN,prac_block_loop.thisN,prac_block_loop.thisIndex,prac_trial_loop.thisRepN,prac_trial_loop.thisTrialN,prac_trial_loop.thisN,prac_trial_loop.thisIndex,first_block_loop.thisRepN,first_block_loop.thisTrialN,first_block_loop.thisN,first_block_loop.thisIndex,firstTrial_loop.thisRepN,firstTrial_loop.thisTrialN,firstTrial_loop.thisN,firstTrial_loop.thisIndex,prac_blockText.started,prac_blockText.stopped,prac_reminder_text.started,prac_reminder_text.stopped,prac_reminder_keyResp.keys,prac_reminder_keyResp.rt,prac_reminder_keyResp.started,prac_reminder_keyResp.stopped,initFixation_img.started,initFixation_img.stopped,ISI,prac_centerImg.started,prac_centerImg.stopped,prac_stim_keyResp.keys,prac_stim_keyResp.rt,prac_stim_keyResp.started,prac_stim_keyResp.stopped,accuracy,prac_blockFeed_text.started,prac_blockFeed_text.stopped,prac_pressContinue.started,prac_pressContinue.stopped,prac_blockFeed_keyResp.keys,prac_blockFeed_keyResp.rt,prac_blockFeed_keyResp.started,prac_blockFeed_keyResp.stopped,key_resp_counterbalance1.keys,key_resp_counterbalance1.rt,key_resp_counterbalance1.started,key_resp_counterbalance1.stopped,firstT_text1.started,firstT_text1.stopped,firstT_key.keys,firstT_key.rt,firstT_key.started,firstT_key.stopped,bigFace_2.started,bigFace_2.stopped,cover_background.started,cover_background.stopped,task_centerImg_3.started,task_centerImg_3.stopped,task_fixImg_3.started,task_fixImg_3.stopped,first_task_stim_keyResp.keys,first_task_stim_keyResp.started,first_task_stim_keyResp.stopped,first_task_stim_keyResp.rt,blockFeedCat,fTfeed_text1_1.started,fTfeed_text1_1.stopped,fTfeed_key_1.keys,fTfeed_key_1.rt,fTfeed_key_1.started,fTfeed_key_1.stopped,id,date,expName,psychopyVersion,frameRate,
trialTable_practice.csv,img/renders/face037_-45.png,img/renders/face037_45.png,img/renders/face037_45.png,8,0,left,"[-0.058, 0]","[0.14, 0]","[-0.14, 0]",,0,0,0,0,0,0,0,3,,,,,,,,,63.88188350200289,None,63.88188350200289,None,8,1.1421959050021542,63.88188350200289,None,65.07461420700201,None,1.9038076152304608,67.1190536710019,67.3273310730001,['1'],[0.6960310110007413],67.1190536710019,None,1,,,,,,,,,,,,,,,,,,,,,,,,,,,,,,,,,,,,,,12,2022_May_10_1445,flanker-basic_v2,2021.2.3,60.524951668761545,
trialTable_practice.csv,img/renders/face351_45.png,img/renders/face351_-45.png,img/renders/face351_-45.png,7,0,right,"[0.058, 0]","[0.14, 0]","[-0.14, 0]",,0,0,0,0,0,1,1,10,,,,,,,,,,,,,,,,,,,1.540080160320641,69.04662195300261,69.25996450599996,['8'],[0.5054195699995034],69.04662195300261,69.04662195300261,1,,,,,,,,,,,,,,,,,,,,,,,,,,,,,,,,,,,,,,12,2022_May_10_1445,flanker-basic_v2,2021.2.3,60.524951668761545,
trialTable_practice.csv,img/renders/face028_45.png,img/renders/face028_-45.png,img/renders/face028_-45.png,7,0,right,"[0.058, 0]","[0.14, 0]","[-0.14, 0]",,0,0,0,0,0,2,2,17,,,,,,,,,,,,,,,,,,,1.528056112224449,70.60993933600184,70.8092396150023,['8'],[0.4499547129998973],70.60993933600184,70.60993933600184,1,,,,,,,,,,,,,,,,,,,,,,,,,,,,,,,,,,,,,,12,2022_May_10_1445,flanker-basic_v2,2021.2.3,60.524951668761545,
trialTable_practice.csv,img/renders/face634_-45.png,img/renders/face634_-45.png,img/renders/face634_-45.png,6,1,left,"[0, 0]","[0.13, 0]","[-0.13, 0]",,0,0,0,0,0,3,3,11,,,,,,,,,,,,,,,,,,,1.7965931863727456,72.15997248900021,72.35967361200164,['1'],[0.47694672199941124],72.15997248900021,72.15997248900021,1,,,,,,,,,,,,,,,,,,,,,,,,,,,,,,,,,,,,,,12,2022_May_10_1445,flanker-basic_v2,2021.2.3,60.524951668761545,
trialTable_practice.csv,img/renders/face586_-45.png,img/renders/face586_-45.png,img/renders/face586_-45.png,6,1,left,"[0, 0]","[0.13, 0]","[-0.13, 0]",,0,0,0,0,0,4,4,2,,,,,,,,,,,,,,,,,,,1.654308617234469,73.97845598500135,74.19168925300255,['1'],[0.6043815129996801],73.97845598500135,73.97845598500135,1,,,,,,,,,,,,,,,,,,,,,,,,,,,,,,,,,,,,,,12,2022_May_10_1445,flanker-basic_v2,2021.2.3,60.524951668761545,
trialTable_practice.csv,img/renders/face040_45.png,img/renders/face040_-45.png,img/renders/face040_-45.png,7,0,right,"[0.058, 0]","[0.14, 0]","[-0.14, 0]",,0,0,0,0,0,5,5,7,,,,,,,,,,,,,,,,,,,1.6352705410821644,75.65928829100085,75.87452756900166,"['8', '1']","[0.42264925699782907, 1.414636621997488]",75.65928829100085,75.65928829100085,1,,,,,,,,,,,,,,,,,,,,,,,,,,,,,,,,,,,,,,12,2022_May_10_1445,flanker-basic_v2,2021.2.3,60.524951668761545,
trialTable_practice.csv,img/renders/face211_45.png,img/renders/face211_45.png,img/renders/face211_45.png,5,1,right,"[0, 0]","[0.13, 0]","[-0.13, 0]",,0,0,0,0,0,6,6,4,,,,,,,,,,,,,,,,,,,1.9178356713426854,77.32284971300032,77.52439124699958,['8'],[0.6400722060025146],77.32284971300032,77.32284971300032,1,,,,,,,,,,,,,,,,,,,,,,,,,,,,,,,,,,,,,,12,2022_May_10_1445,flanker-basic_v2,2021.2.3,60.524951668761545,
trialTable_practice.csv,img/renders/face120_-45.png,img/renders/face120_-45.png,img/renders/face120_-45.png,6,1,left,"[0, 0]","[0.13, 0]","[-0.13, 0]",,0,0,0,0,0,7,7,16,,,,,,,,,,,,,,,,,,,1.81062124248497,79.26128393600084,79.47356578400286,['1'],[0.5967382400012866],79.26128393600084,79.26128393600084,1,,,,,,,,,,,,,,,,,,,,,,,,,,,,,,,,,,,,,,12,2022_May_10_1445,flanker-basic_v2,2021.2.3,60.524951668761545,
trialTable_practice.csv,img/renders/face269_45.png,img/renders/face269_-45.png,img/renders/face269_-45.png,7,0,right,"[0.058, 0]","[0.14, 0]","[-0.14, 0]",,0,0,0,0,0,8,8,6,,,,,,,,,,,,,,,,,,,1.9509018036072143,81.09084632200029,81.28971286900196,['8'],[0.4141367899974284],81.09084632200029,81.09084632200029,1,,,,,,,,,,,,,,,,,,,,,,,,,,,,,,,,,,,,,,12,2022_May_10_1445,flanker-basic_v2,2021.2.3,60.524951668761545,
trialTable_practice.csv,img/renders/face994_45.png,img/renders/face994_45.png,img/renders/face994_45.png,5,1,right,"[0, 0]","[0.13, 0]","[-0.13, 0]",,0,0,0,0,0,9,9,13,,,,,,,,,,,,,,,,,,,1.7905811623246493,83.07272882799953,83.27288233000218,['8'],[0.4752051470022707],83.07272882799953,83.07272882799953,1,,,,,,,,,,,,,,,,,,,,,,,,,,,,,,,,,,,,,,12,2022_May_10_1445,flanker-basic_v2,2021.2.3,60.524951668761545,
trialTable_practice.csv,img/renders/face013_-45.png,img/renders/face013_-45.png,img/renders/face013_-45.png,6,1,left,"[0, 0]","[0.13, 0]","[-0.13, 0]",,0,0,0,0,0,10,10,18,,,,,,,,,,,,,,,,,,,1.6843687374749499,84.89147680300084,85.1061345570015,['1'],[0.41356594399985624],84.89147680300084,84.89147680300084,1,,,,,,,,,,,,,,,,,,,,,,,,,,,,,,,,,,,,,,12,2022_May_10_1445,flanker-basic_v2,2021.2.3,60.524951668761545,
trialTable_practice.csv,img/renders/face581_45.png,img/renders/face581_45.png,img/renders/face581_45.png,5,1,right,"[0, 0]","[0.13, 0]","[-0.13, 0]",,0,0,0,0,0,11,11,8,,,,,,,,,,,,,,,,,,,1.6092184368737477,86.60787381000046,86.82178687200212,['8'],[0.35711344000083045],86.60787381000046,86.60787381000046,1,,,,,,,,,,,,,,,,,,,,,,,,,,,,,,,,,,,,,,12,2022_May_10_1445,flanker-basic_v2,2021.2.3,60.524951668761545,
trialTable_practice.csv,img/renders/face418_45.png,img/renders/face418_-45.png,img/renders/face418_-45.png,7,0,right,"[0.058, 0]","[0.14, 0]","[-0.14, 0]",,0,0,0,0,0,12,12,19,,,,,,,,,,,,,,,,,,,1.7404809619238477,88.2404339450004,88.45530050900197,['8'],[0.4426161960000172],88.2404339450004,88.2404339450004,1,,,,,,,,,,,,,,,,,,,,,,,,,,,,,,,,,,,,,,12,2022_May_10_1445,flanker-basic_v2,2021.2.3,60.524951668761545,
trialTable_practice.csv,img/renders/face704_45.png,img/renders/face704_45.png,img/renders/face704_45.png,5,1,right,"[0, 0]","[0.13, 0]","[-0.13, 0]",,0,0,0,0,0,13,13,9,,,,,,,,,,,,,,,,,,,1.5090180360721441,90.00966874500227,90.22108151800057,['8'],[0.45928643899969757],90.00966874500227,90.00966874500227,1,,,,,,,,,,,,,,,,,,,,,,,,,,,,,,,,,,,,,,12,2022_May_10_1445,flanker-basic_v2,2021.2.3,60.524951668761545,
trialTable_practice.csv,img/renders/face482_45.png,img/renders/face482_45.png,img/renders/face482_45.png,5,1,right,"[0, 0]","[0.13, 0]","[-0.13, 0]",,0,0,0,0,0,14,14,15,,,,,,,,,,,,,,,,,,,1.7705410821643286,91.5409050920025,91.75367409300088,['8'],[0.402010590001737],91.5409050920025,91.5409050920025,1,,,,,,,,,,,,,,,,,,,,,,,,,,,,,,,,,,,,,,12,2022_May_10_1445,flanker-basic_v2,2021.2.3,60.524951668761545,
trialTable_practice.csv,img/renders/face800_-45.png,img/renders/face800_45.png,img/renders/face800_45.png,8,0,left,"[-0.058, 0]","[0.14, 0]","[-0.14, 0]",,0,0,0,0,0,15,15,12,,,,,,,,,,,,,,,,,,,1.566132264529058,93.3404308370009,93.5533227470005,['8'],[0.36956647999977577],93.3404308370009,93.3404308370009,0,,,,,,,,,,,,,,,,,,,,,,,,,,,,,,,,,,,,,,12,2022_May_10_1445,flanker-basic_v2,2021.2.3,60.524951668761545,
trialTable_practice.csv,img/renders/face395_-45.png,img/renders/face395_-45.png,img/renders/face395_-45.png,6,1,left,"[0, 0]","[0.13, 0]","[-0.13, 0]",,0,0,0,0,0,16,16,5,,,,,,,,,,,,,,,,,,,1.6472945891783568,94.93532500700167,95.1359182840024,['1'],[0.3456989029982651],94.93532500700167,94.93532500700167,1,,,,,,,,,,,,,,,,,,,,,,,,,,,,,,,,,,,,,,12,2022_May_10_1445,flanker-basic_v2,2021.2.3,60.524951668761545,
trialTable_practice.csv,img/renders/face559_-45.png,img/renders/face559_45.png,img/renders/face559_45.png,8,0,left,"[-0.058, 0]","[0.14, 0]","[-0.14, 0]",,0,0,0,0,0,17,17,14,,,,,,,,,,,,,,,,,,,1.6923847695390781,96.60346933300025,96.80298783000035,['1'],[0.7234657039989543],96.60346933300025,96.60346933300025,1,,,,,,,,,,,,,,,,,,,,,,,,,,,,,,,,,,,,,,12,2022_May_10_1445,flanker-basic_v2,2021.2.3,60.524951668761545,
trialTable_practice.csv,img/renders/face602_-45.png,img/renders/face602_45.png,img/renders/face602_45.png,8,0,left,"[-0.058, 0]","[0.14, 0]","[-0.14, 0]",,0,0,0,0,0,18,18,0,,,,,,,,,,,,,,,,,,,1.7034068136272544,98.3198316320013,98.53527477900207,['1'],[0.5741475650029315],98.3198316320013,98.3198316320013,1,,,,,,,,,,,,,,,,,,,,,,,,,,,,,,,,,,,,,,12,2022_May_10_1445,flanker-basic_v2,2021.2.3,60.524951668761545,
trialTable_practice.csv,img/renders/face781_-45.png,img/renders/face781_45.png,img/renders/face781_45.png,8,0,left,"[-0.058, 0]","[0.14, 0]","[-0.14, 0]",,0,0,0,0,0,19,19,1,,,,,,,,,,,,,,,,,,,1.780561122244489,100.05494021800041,100.26920901700214,['1'],[0.4051987669990922],100.05494021800041,100.05494021800041,1,,,,,,,,,,,,,,,,,,,,,,,,,,,,,,,,,,,,,,12,2022_May_10_1445,flanker-basic_v2,2021.2.3,60.524951668761545,
trialTable_practice.csv,,,,,,,,,,,0,0,0,0,,,,,,,,,,,,,,,,,,,,,,,,,,,,,,,101.83530249800242,None,101.83530249800242,None,8,1.0337257930004853,101.83530249800242,None,,,,,,,,,,,,,,,,,,,,,,,,,,,,,,12,2022_May_10_1445,flanker-basic_v2,2021.2.3,60.524951668761545,
,,,,,,,,,,,,,,,,,,,,,,,,,,,,,,,,,,,,,,,,,,,,,,,,,,,,,8,0.5732417590006662,102.91681057200185,None,,,,,,,,,,,,,,,,,,,,,,,,,,12,2022_May_10_1445,flanker-basic_v2,2021.2.3,60.524951668761545,
alt_trialTable_5.csv,img/renders/face572_-45.png,img/renders/face572_45.png,img/renders/face572_45.png,8,0,left,"[-0.08, 0]","[0.18, 0]","[-0.18, 0]",img/renders/face572_0.png,,,,,,,,,0,0,0,4,0,0,0,14,,,,,,,,,104.66793559800135,None,1.6322645290581164,,,,,,,1,,,,,,,,,,,,,103.52811617300176,None,8,1.113895409998804,103.52811617300176,None,106.73091900600048,None,106.73091900600048,106.93572108300214,106.73091900600048,106.93572108300214,106.73091900600048,None,None,106.73091900600048,None,,,,,,,,,12,2022_May_10_1445,flanker-basic_v2,2021.2.3,60.524951668761545,
alt_trialTable_5.csv,img/renders/face994_-45.png,img/renders/face994_-45.png,img/renders/face994_-45.png,6,1,left,"[0, 0]","[0.18, 0]","[-0.18, 0]",img/renders/face994_0.png,,,,,,,,,0,0,0,4,0,1,1,28,,,,,,,,,,,1.6022044088176353,,,,,,,1,,,,,,,,,,,,,,,,,,,108.40759390600215,108.40759390600215,108.40759390600215,108.6178045600027,108.40759390600215,108.6178045600027,108.40759390600215,108.40759390600215,['1'],108.40759390600215,108.40759390600215,[0.2858715719994507],,,,,,,,12,2022_May_10_1445,flanker-basic_v2,2021.2.3,60.524951668761545,
alt_trialTable_5.csv,img/renders/face428_-45.png,img/renders/face428_45.png,img/renders/face428_45.png,8,0,left,"[-0.08, 0]","[0.18, 0]","[-0.18, 0]",img/renders/face428_0.png,,,,,,,,,0,0,0,4,0,2,2,31,,,,,,,,,,,1.527054108216433,,,,,,,1,,,,,,,,,,,,,,,,,,,108.74330188600288,None,108.74330188600288,108.95158348900077,108.74330188600288,108.95158348900077,108.74330188600288,None,['1'],108.74330188600288,None,[1.2918344019999495],,,,,,,,12,2022_May_10_1445,flanker-basic_v2,2021.2.3,60.524951668761545,
alt_trialTable_5.csv,img/renders/face936_-45.png,img/renders/face936_-45.png,img/renders/face936_-45.png,6,1,left,"[0, 0]","[0.18, 0]","[-0.18, 0]",img/renders/face936_0.png,,,,,,,,,0,0,0,4,0,3,3,13,,,,,,,,,,,1.7735470941883769,,,,,,,1,,,,,,,,,,,,,,,,,,,110.09476817299947,None,110.09476817299947,110.2986844770021,110.09476817299947,110.2986844770021,110.09476817299947,None,['1'],110.09476817299947,None,[0.7233068450004794],,,,,,,,12,2022_May_10_1445,flanker-basic_v2,2021.2.3,60.524951668761545,
alt_trialTable_5.csv,img/renders/face152_-45.png,img/renders/face152_-45.png,img/renders/face152_-45.png,6,1,left,"[0, 0]","[0.18, 0]","[-0.18, 0]",img/renders/face152_0.png,,,,,,,,,0,0,0,4,0,4,4,2,,,,,,,,,,,1.7775551102204408,,,,,,,1,,,,,,,,,,,,,,,,,,,110.86141143700297,None,110.86141143700297,111.06825303600272,110.86141143700297,111.06825303600272,110.86141143700297,None,['1'],110.86141143700297,None,[1.075670585003536],,,,,,,,12,2022_May_10_1445,flanker-basic_v2,2021.2.3,60.524951668761545,
alt_trialTable_5.csv,img/renders/face487_45.png,img/renders/face487_-45.png,img/renders/face487_-45.png,7,0,right,"[0.08, 0]","[0.18, 0]","[-0.18, 0]",img/renders/face487_0.png,,,,,,,,,0,0,0,4,0,5,5,11,,,,,,,,,,,1.9278557114228456,,,,,,,1,,,,,,,,,,,,,,,,,,,112.00757001100283,None,112.00757001100283,112.21559066500049,112.00757001100283,112.21559066500049,112.00757001100283,None,['8'],112.00757001100283,None,[0.984096440999565],,,,,,,,12,2022_May_10_1445,flanker-basic_v2,2021.2.3,60.524951668761545,
alt_trialTable_5.csv,img/renders/face256_45.png,img/renders/face256_45.png,img/renders/face256_45.png,5,1,right,"[0, 0]","[0.18, 0]","[-0.18, 0]",img/renders/face256_0.png,,,,,,,,,0,0,0,4,0,6,6,8,,,,,,,,,,,1.942885771543086,,,,,,,1,,,,,,,,,,,,,,,,,,,113.04021482400276,None,113.04021482400276,113.25036310900032,113.04021482400276,113.25036310900032,113.04021482400276,None,None,113.04021482400276,None,,,,,,,,,12,2022_May_10_1445,flanker-basic_v2,2021.2.3,60.524951668761545,
alt_trialTable_5.csv,img/renders/face084_45.png,img/renders/face084_-45.png,img/renders/face084_-45.png,7,0,right,"[0.08, 0]","[0.18, 0]","[-0.18, 0]",img/renders/face084_0.png,,,,,,,,,0,0,0,4,0,7,7,5,,,,,,,,,,,1.7945891783567134,,,,,,,1,,,,,,,,,,,,,,,,,,,115.02090047599995,115.02090047599995,115.02090047599995,115.23309459400116,115.02090047599995,115.23309459400116,115.02090047599995,115.02090047599995,['8'],115.02090047599995,115.02090047599995,[0.7302415649974137],,,,,,,,12,2022_May_10_1445,flanker-basic_v2,2021.2.3,60.524951668761545,
alt_trialTable_5.csv,img/renders/face647_45.png,img/renders/face647_-45.png,img/renders/face647_-45.png,7,0,right,"[0.08, 0]","[0.18, 0]","[-0.18, 0]",img/renders/face647_0.png,,,,,,,,,0,0,0,4,0,8,8,3,,,,,,,,,,,1.6432865731462925,,,,,,,1,,,,,,,,,,,,,,,,,,,115.8051648239998,None,115.8051648239998,116.01587421300064,115.8051648239998,116.01587421300064,115.8051648239998,None,['8'],115.8051648239998,None,[1.035276183996757],,,,,,,,12,2022_May_10_1445,flanker-basic_v2,2021.2.3,60.524951668761545,
alt_trialTable_5.csv,img/renders/face327_-45.png,img/renders/face327_45.png,img/renders/face327_45.png,8,0,left,"[-0.08, 0]","[0.18, 0]","[-0.18, 0]",img/renders/face327_0.png,,,,,,,,,0,0,0,4,0,9,9,4,,,,,,,,,,,1.7505010020040082,,,,,,,1,,,,,,,,,,,,,,,,,,,116.88908133400037,None,116.88908133400037,117.09905796500243,116.88908133400037,117.09905796500243,116.88908133400037,None,None,116.88908133400037,None,,,,,,,,,12,2022_May_10_1445,flanker-basic_v2,2021.2.3,60.524951668761545,
alt_trialTable_5.csv,img/renders/face079_45.png,img/renders/face079_-45.png,img/renders/face079_-45.png,7,0,right,"[0.08, 0]","[0.18, 0]","[-0.18, 0]",img/renders/face079_0.png,,,,,,,,,0,0,0,4,0,10,10,27,,,,,,,,,,,1.5871743486973948,,,,,,,1,,,,,,,,,,,,,,,,,,,118.68012688800081,118.68012688800081,118.68012688800081,118.88087556100072,118.68012688800081,118.88087556100072,118.68012688800081,118.68012688800081,['8'],118.68012688800081,118.68012688800081,[0.5381666930006759],,,,,,,,12,2022_May_10_1445,flanker-basic_v2,2021.2.3,60.524951668761545,
alt_trialTable_5.csv,img/renders/face820_45.png,img/renders/face820_45.png,img/renders/face820_45.png,5,1,right,"[0, 0]","[0.18, 0]","[-0.18, 0]",img/renders/face820_0.png,,,,,,,,,0,0,0,4,0,11,11,9,,,,,,,,,,,1.7114228456913827,,,,,,,1,,,,,,,,,,,,,,,,,,,119.27835124700141,None,119.27835124700141,119.48112010600016,119.27835124700141,119.48112010600016,119.27835124700141,None,['8'],119.27835124700141,None,[0.815915610997763],,,,,,,,12,2022_May_10_1445,flanker-basic_v2,2021.2.3,60.524951668761545,
alt_trialTable_5.csv,img/renders/face953_-45.png,img/renders/face953_45.png,img/renders/face953_45.png,8,0,left,"[-0.08, 0]","[0.18, 0]","[-0.18, 0]",img/renders/face953_0.png,,,,,,,,,0,0,0,4,0,12,12,17,,,,,,,,,,,1.8897795591182365,,,,,,,1,,,,,,,,,,,,,,,,,,,120.14375482499963,None,120.14375482499963,120.34826960600185,120.14375482499963,120.34826960600185,120.14375482499963,None,['1'],120.14375482499963,None,[0.7003910029998224],,,,,,,,12,2022_May_10_1445,flanker-basic_v2,2021.2.3,60.524951668761545,
alt_trialTable_5.csv,img/renders/face439_45.png,img/renders/face439_45.png,img/renders/face439_45.png,5,1,right,"[0, 0]","[0.18, 0]","[-0.18, 0]",img/renders/face439_0.png,,,,,,,,,0,0,0,4,0,13,13,15,,,,,,,,,,,1.6062124248496994,,,,,,,1,,,,,,,,,,,,,,,,,,,120.88960388200212,None,120.88960388200212,121.09806871000183,120.88960388200212,121.09806871000183,120.88960388200212,None,['8'],120.88960388200212,None,[0.7196291779982857],,,,,,,,12,2022_May_10_1445,flanker-basic_v2,2021.2.3,60.524951668761545,
alt_trialTable_5.csv,img/renders/face087_-45.png,img/renders/face087_-45.png,img/renders/face087_-45.png,6,1,left,"[0, 0]","[0.18, 0]","[-0.18, 0]",img/renders/face087_0.png,,,,,,,,,0,0,0,4,0,14,14,21,,,,,,,,,,,1.8236472945891782,,,,,,,1,,,,,,,,,,,,,,,,,,,121.65824228000201,None,121.65824228000201,121.86399996399996,121.65824228000201,121.86399996399996,121.65824228000201,None,['1'],121.65824228000201,None,[1.689993105999747],,,,,,,,12,2022_May_10_1445,flanker-basic_v2,2021.2.3,60.524951668761545,
alt_trialTable_5.csv,img/renders/face203_45.png,img/renders/face203_-45.png,img/renders/face203_-45.png,7,0,right,"[0.08, 0]","[0.18, 0]","[-0.18, 0]",img/renders/face203_0.png,,,,,,,,,0,0,0,4,0,15,15,6,,,,,,,,,,,1.8276553106212425,,,,,,,1,,,,,,,,,,,,,,,,,,,123.41000031600197,None,123.41000031600197,123.61442951100253,123.41000031600197,123.61442951100253,123.41000031600197,None,None,123.41000031600197,None,,,,,,,,,12,2022_May_10_1445,flanker-basic_v2,2021.2.3,60.524951668761545,
alt_trialTable_5.csv,img/renders/face081_-45.png,img/renders/face081_-45.png,img/renders/face081_-45.png,6,1,left,"[0, 0]","[0.18, 0]","[-0.18, 0]",img/renders/face081_0.png,,,,,,,,,0,0,0,4,0,16,16,12,,,,,,,,,,,1.6332665330661322,,,,,,,1,,,,,,,,,,,,,,,,,,,125.28747585900055,125.28747585900055,125.28747585900055,125.49641015200177,125.28747585900055,125.49641015200177,125.28747585900055,125.28747585900055,['1'],125.28747585900055,125.28747585900055,[0.6416044780016819],,,,,,,,12,2022_May_10_1445,flanker-basic_v2,2021.2.3,60.524951668761545,
alt_trialTable_5.csv,img/renders/face735_45.png,img/renders/face735_45.png,img/renders/face735_45.png,5,1,right,"[0, 0]","[0.18, 0]","[-0.18, 0]",img/renders/face735_0.png,,,,,,,,,0,0,0,4,0,17,17,19,,,,,,,,,,,1.9448897795591182,,,,,,,1,,,,,,,,,,,,,,,,,,,125.97248581500025,None,125.97248581500025,126.17860680800004,125.97248581500025,126.17860680800004,125.97248581500025,None,['8'],125.97248581500025,None,[0.697630446000403],,,,,,,,12,2022_May_10_1445,flanker-basic_v2,2021.2.3,60.524951668761545,
alt_trialTable_5.csv,img/renders/face568_45.png,img/renders/face568_-45.png,img/renders/face568_-45.png,7,0,right,"[0.08, 0]","[0.18, 0]","[-0.18, 0]",img/renders/face568_0.png,,,,,,,,,0,0,0,4,0,18,18,10,,,,,,,,,,,1.7615230460921845,,,,,,,1,,,,,,,,,,,,,,,,,,,126.72070464500212,None,126.72070464500212,126.92883714700292,126.72070464500212,126.92883714700292,126.72070464500212,None,['8'],126.72070464500212,None,[1.3783973660029005],,,,,,,,12,2022_May_10_1445,flanker-basic_v2,2021.2.3,60.524951668761545,
alt_trialTable_5.csv,img/renders/face692_-45.png,img/renders/face692_45.png,img/renders/face692_45.png,8,0,left,"[-0.08, 0]","[0.18, 0]","[-0.18, 0]",img/renders/face692_0.png,,,,,,,,,0,0,0,4,0,19,19,25,,,,,,,,,,,1.8236472945891782,,,,,,,1,,,,,,,,,,,,,,,,,,,128.15662524100117,None,128.15662524100117,128.36326833800194,128.15662524100117,128.36326833800194,128.15662524100117,None,['1'],128.15662524100117,None,[0.8574338980033644],,,,,,,,12,2022_May_10_1445,flanker-basic_v2,2021.2.3,60.524951668761545,
alt_trialTable_5.csv,img/renders/face075_45.png,img/renders/face075_45.png,img/renders/face075_45.png,5,1,right,"[0, 0]","[0.18, 0]","[-0.18, 0]",img/renders/face075_0.png,,,,,,,,,0,0,0,4,0,20,20,24,,,,,,,,,,,1.5410821643286572,,,,,,,1,,,,,,,,,,,,,,,,,,,129.08215302200188,None,129.08215302200188,129.2961195530006,129.08215302200188,129.2961195530006,129.08215302200188,None,None,129.08215302200188,None,,,,,,,,,12,2022_May_10_1445,flanker-basic_v2,2021.2.3,60.524951668761545,
alt_trialTable_5.csv,img/renders/face274_45.png,img/renders/face274_45.png,img/renders/face274_45.png,5,1,right,"[0, 0]","[0.18, 0]","[-0.18, 0]",img/renders/face274_0.png,,,,,,,,,0,0,0,4,0,21,21,7,,,,,,,,,,,1.6152304609218435,,,,,,,1,,,,,,,,,,,,,,,,,,,130.6690376660008,130.6690376660008,130.6690376660008,130.87862313300138,130.6690376660008,130.87862313300138,130.6690376660008,130.6690376660008,['8'],130.6690376660008,130.6690376660008,[0.6432630039998912],,,,,,,,12,2022_May_10_1445,flanker-basic_v2,2021.2.3,60.524951668761545,
alt_trialTable_5.csv,img/renders/face503_-45.png,img/renders/face503_-45.png,img/renders/face503_-45.png,6,1,left,"[0, 0]","[0.18, 0]","[-0.18, 0]",img/renders/face503_0.png,,,,,,,,,0,0,0,4,0,22,22,29,,,,,,,,,,,1.5521042084168337,,,,,,,1,,,,,,,,,,,,,,,,,,,131.35245853000015,None,131.35245853000015,131.56049471799997,131.35245853000015,131.56049471799997,131.35245853000015,None,None,131.35245853000015,None,,,,,,,,,12,2022_May_10_1445,flanker-basic_v2,2021.2.3,60.524951668761545,
alt_trialTable_5.csv,img/renders/face011_-45.png,img/renders/face011_45.png,img/renders/face011_45.png,8,0,left,"[-0.08, 0]","[0.18, 0]","[-0.18, 0]",img/renders/face011_0.png,,,,,,,,,0,0,0,4,0,23,23,0,,,,,,,,,,,1.7985971943887775,,,,,,,1,,,,,,,,,,,,,,,,,,,132.95091393000257,132.95091393000257,132.95091393000257,133.1617378910014,132.95091393000257,133.1617378910014,132.95091393000257,132.95091393000257,None,132.95091393000257,132.95091393000257,,,,,,,,,12,2022_May_10_1445,flanker-basic_v2,2021.2.3,60.524951668761545,
alt_trialTable_5.csv,img/renders/face080_-45.png,img/renders/face080_-45.png,img/renders/face080_-45.png,6,1,left,"[0, 0]","[0.18, 0]","[-0.18, 0]",img/renders/face080_0.png,,,,,,,,,0,0,0,4,0,24,24,20,,,,,,,,,,,1.9829659318637274,,,,,,,1,,,,,,,,,,,,,,,,,,,134.79523764100304,134.79523764100304,134.79523764100304,135.01132325000071,134.79523764100304,135.01132325000071,134.79523764100304,134.79523764100304,None,134.79523764100304,134.79523764100304,,,,,,,,,12,2022_May_10_1445,flanker-basic_v2,2021.2.3,60.524951668761545,
alt_trialTable_5.csv,img/renders/face392_45.png,img/renders/face392_45.png,img/renders/face392_45.png,5,1,right,"[0, 0]","[0.18, 0]","[-0.18, 0]",img/renders/face392_0.png,,,,,,,,,0,0,0,4,0,25,25,1,,,,,,,,,,,1.7224448897795592,,,,,,,1,,,,,,,,,,,,,,,,,,,136.83026638700176,136.83026638700176,136.83026638700176,137.04393046800033,136.83026638700176,137.04393046800033,136.83026638700176,136.83026638700176,None,136.83026638700176,136.83026638700176,,,,,,,,,12,2022_May_10_1445,flanker-basic_v2,2021.2.3,60.524951668761545,
alt_trialTable_5.csv,img/renders/face137_-45.png,img/renders/face137_45.png,img/renders/face137_45.png,8,0,left,"[-0.08, 0]","[0.18, 0]","[-0.18, 0]",img/renders/face137_0.png,,,,,,,,,0,0,0,4,0,26,26,16,,,,,,,,,,,1.970941883767535,,,,,,,1,,,,,,,,,,,,,,,,,,,138.5945993610003,138.5945993610003,138.5945993610003,138.809681748,138.5945993610003,138.809681748,138.5945993610003,138.5945993610003,None,138.5945993610003,138.5945993610003,,,,,,,,,12,2022_May_10_1445,flanker-basic_v2,2021.2.3,60.524951668761545,
alt_trialTable_5.csv,img/renders/face840_45.png,img/renders/face840_-45.png,img/renders/face840_-45.png,7,0,right,"[0.08, 0]","[0.18, 0]","[-0.18, 0]",img/renders/face840_0.png,,,,,,,,,0,0,0,4,0,27,27,30,,,,,,,,,,,1.9549098196392785,,,,,,,1,,,,,,,,,,,,,,,,,,,140.6116708590016,140.6116708590016,140.6116708590016,140.82563863200266,140.6116708590016,140.82563863200266,140.6116708590016,140.6116708590016,None,140.6116708590016,140.6116708590016,,,,,,,,,12,2022_May_10_1445,flanker-basic_v2,2021.2.3,60.524951668761545,
alt_trialTable_5.csv,img/renders/face090_-45.png,img/renders/face090_-45.png,img/renders/face090_-45.png,6,1,left,"[0, 0]","[0.18, 0]","[-0.18, 0]",img/renders/face090_0.png,,,,,,,,,0,0,0,4,0,28,28,26,,,,,,,,,,,1.9188376753507013,,,,,,,1,,,,,,,,,,,,,,,,,,,142.61028558399994,142.61028558399994,142.61028558399994,142.82556315600232,142.61028558399994,142.82556315600232,142.61028558399994,142.61028558399994,None,142.61028558399994,142.61028558399994,,,,,,,,,12,2022_May_10_1445,flanker-basic_v2,2021.2.3,60.524951668761545,
alt_trialTable_5.csv,img/renders/face104_-45.png,img/renders/face104_45.png,img/renders/face104_45.png,8,0,left,"[-0.08, 0]","[0.18, 0]","[-0.18, 0]",img/renders/face104_0.png,,,,,,,,,0,0,0,4,0,29,29,23,,,,,,,,,,,1.8316633266533064,,,,,,,1,,,,,,,,,,,,,,,,,,,144.5732230930007,144.5732230930007,144.5732230930007,144.7746785800009,144.5732230930007,144.7746785800009,144.5732230930007,144.5732230930007,None,144.5732230930007,144.5732230930007,,,,,,,,,12,2022_May_10_1445,flanker-basic_v2,2021.2.3,60.524951668761545,
alt_trialTable_5.csv,img/renders/face589_45.png,img/renders/face589_45.png,img/renders/face589_45.png,5,1,right,"[0, 0]","[0.18, 0]","[-0.18, 0]",img/renders/face589_0.png,,,,,,,,,0,0,0,4,0,30,30,22,,,,,,,,,,,1.9168336673346693,,,,,,,1,,,,,,,,,,,,,,,,,,,146.43257576299948,146.43257576299948,146.43257576299948,146.63882755600207,146.43257576299948,146.63882755600207,146.43257576299948,146.43257576299948,None,146.43257576299948,146.43257576299948,,,,,,,,,12,2022_May_10_1445,flanker-basic_v2,2021.2.3,60.524951668761545,
alt_trialTable_5.csv,img/renders/face873_45.png,img/renders/face873_-45.png,img/renders/face873_-45.png,7,0,right,"[0.08, 0]","[0.18, 0]","[-0.18, 0]",img/renders/face873_0.png,,,,,,,,,0,0,0,4,0,31,31,18,,,,,,,,,,,1.6673346693386772,,,,,,,1,,,,,,,,,,,,,,,,,,,148.39647703300216,148.39647703300216,148.39647703300216,148.60668870399968,148.39647703300216,148.60668870399968,148.39647703300216,148.39647703300216,None,148.39647703300216,148.39647703300216,,,,,,,,,12,2022_May_10_1445,flanker-basic_v2,2021.2.3,60.524951668761545,
alt_trialTable_5.csv,,,,,,,,,,,,,,,,,,,0,0,0,4,,,,,,,,,,,,,,,,,,,,,,,,,,,,,,,,,,,,,,,,,,,,,,,,,,,,,3,150.0897768060022,None,8,4.344776367001032,160.0854749880018,None,12,2022_May_10_1445,flanker-basic_v2,2021.2.3,60.524951668761545,
alt_trialTable_6.csv,img/renders/face645_45.png,img/renders/face645_45.png,img/renders/face645_45.png,5,1,right,"[0, 0]","[0.18, 0]","[-0.18, 0]",img/renders/face645_0.png,,,,,,,,,0,1,1,5,0,0,0,5,,,,,,,,,175.25271969800087,None,1.8366733466933867,,,,,,,1,,,,,,,,,,,,,164.45117277600002,None,8,10.777969239999948,164.45117277600002,None,177.31726732000243,None,177.31726732000243,177.51548096999977,177.31726732000243,177.51548096999977,177.31726732000243,None,['8'],177.31726732000243,None,[0.7928765639990161],,,,,,,,12,2022_May_10_1445,flanker-basic_v2,2021.2.3,60.524951668761545,
alt_trialTable_6.csv,img/renders/face480_-45.png,img/renders/face480_-45.png,img/renders/face480_-45.png,6,1,left,"[0, 0]","[0.18, 0]","[-0.18, 0]",img/renders/face480_0.png,,,,,,,,,0,1,1,5,0,1,1,6,,,,,,,,,,,1.7214428857715431,,,,,,,1,,,,,,,,,,,,,,,,,,,178.169763443002,None,178.169763443002,178.38326315800077,178.169763443002,178.38326315800077,178.169763443002,None,['1'],178.169763443002,None,[0.5735884269997769],,,,,,,,12,2022_May_10_1445,flanker-basic_v2,2021.2.3,60.524951668761545,
alt_trialTable_6.csv,img/renders/face243_45.png,img/renders/face243_45.png,img/renders/face243_45.png,5,1,right,"[0, 0]","[0.18, 0]","[-0.18, 0]",img/renders/face243_0.png,,,,,,,,,0,1,1,5,0,2,2,2,,,,,,,,,,,1.5801603206412826,,,,,,,1,,,,,,,,,,,,,,,,,,,178.80339558800188,None,178.80339558800188,179.0158523680002,178.80339558800188,179.0158523680002,178.80339558800188,None,['8'],178.80339558800188,None,[0.5447594030010805],,,,,,,,12,2022_May_10_1445,flanker-basic_v2,2021.2.3,60.524951668761545,
alt_trialTable_6.csv,img/renders/face285_-45.png,img/renders/face285_-45.png,img/renders/face285_-45.png,6,1,left,"[0, 0]","[0.18, 0]","[-0.18, 0]",img/renders/face285_0.png,,,,,,,,,0,1,1,5,0,3,3,0,,,,,,,,,,,1.8557114228456912,,,,,,,1,,,,,,,,,,,,,,,,,,,179.40556526799992,None,179.40556526799992,179.6136250890013,179.40556526799992,179.6136250890013,179.40556526799992,None,['1'],179.40556526799992,None,[0.5236460189989884],,,,,,,,12,2022_May_10_1445,flanker-basic_v2,2021.2.3,60.524951668761545,
alt_trialTable_6.csv,img/renders/face639_-45.png,img/renders/face639_45.png,img/renders/face639_45.png,8,0,left,"[-0.08, 0]","[0.18, 0]","[-0.18, 0]",img/renders/face639_0.png,,,,,,,,,0,1,1,5,0,4,4,1,,,,,,,,,,,1.6312625250501,,,,,,,1,,,,,,,,,,,,,,,,,,,179.9746098120013,None,179.9746098120013,180.1814176500011,179.9746098120013,180.1814176500011,179.9746098120013,None,['1'],179.9746098120013,None,[0.6114532449973922],,,,,,,,12,2022_May_10_1445,flanker-basic_v2,2021.2.3,60.524951668761545,
alt_trialTable_6.csv,img/renders/face852_45.png,img/renders/face852_45.png,img/renders/face852_45.png,5,1,right,"[0, 0]","[0.18, 0]","[-0.18, 0]",img/renders/face852_0.png,,,,,,,,,0,1,1,5,0,5,5,10,,,,,,,,,,,1.9478957915831663,,,,,,,1,,,,,,,,,,,,,,,,,,,180.63350012400042,None,180.63350012400042,180.84846380300223,180.63350012400042,180.84846380300223,180.63350012400042,None,['8'],180.63350012400042,None,[1.196388897998986],,,,,,,,12,2022_May_10_1445,flanker-basic_v2,2021.2.3,60.524951668761545,
alt_trialTable_6.csv,img/renders/face588_-45.png,img/renders/face588_-45.png,img/renders/face588_-45.png,6,1,left,"[0, 0]","[0.18, 0]","[-0.18, 0]",img/renders/face588_0.png,,,,,,,,,0,1,1,5,0,6,6,30,,,,,,,,,,,1.719438877755511,,,,,,,1,,,,,,,,,,,,,,,,,,,181.87161339100203,None,181.87161339100203,182.0822865709997,181.87161339100203,182.0822865709997,181.87161339100203,None,['1'],181.87161339100203,None,[0.5317945980023069],,,,,,,,12,2022_May_10_1445,flanker-basic_v2,2021.2.3,60.524951668761545,
alt_trialTable_6.csv,img/renders/face436_-45.png,img/renders/face436_45.png,img/renders/face436_45.png,8,0,left,"[-0.08, 0]","[0.18, 0]","[-0.18, 0]",img/renders/face436_0.png,,,,,,,,,0,1,1,5,0,7,7,24,,,,,,,,,,,1.8857715430861721,,,,,,,1,,,,,,,,,,,,,,,,,,,182.45829106400197,None,182.45829106400197,182.66253547400265,182.45829106400197,182.66253547400265,182.45829106400197,None,['1'],182.45829106400197,None,[0.6898042790016916],,,,,,,,12,2022_May_10_1445,flanker-basic_v2,2021.2.3,60.524951668761545,
alt_trialTable_6.csv,img/renders/face859_-45.png,img/renders/face859_45.png,img/renders/face859_45.png,8,0,left,"[-0.08, 0]","[0.18, 0]","[-0.18, 0]",img/renders/face859_0.png,,,,,,,,,0,1,1,5,0,8,8,15,,,,,,,,,,,1.531062124248497,,,,,,,1,,,,,,,,,,,,,,,,,,,183.18725409300168,None,183.18725409300168,183.39812398300273,183.18725409300168,183.39812398300273,183.18725409300168,None,['1'],183.18725409300168,None,[0.6138853740012564],,,,,,,,12,2022_May_10_1445,flanker-basic_v2,2021.2.3,60.524951668761545,
alt_trialTable_6.csv,img/renders/face430_45.png,img/renders/face430_-45.png,img/renders/face430_-45.png,7,0,right,"[0.08, 0]","[0.18, 0]","[-0.18, 0]",img/renders/face430_0.png,,,,,,,,,0,1,1,5,0,9,9,13,,,,,,,,,,,1.9078156312625252,,,,,,,1,,,,,,,,,,,,,,,,,,,183.8574412650014,None,183.8574412650014,184.06401460000052,183.8574412650014,184.06401460000052,183.8574412650014,None,['8'],183.8574412650014,None,[0.5557002489986189],,,,,,,,12,2022_May_10_1445,flanker-basic_v2,2021.2.3,60.524951668761545,
alt_trialTable_6.csv,img/renders/face193_-45.png,img/renders/face193_45.png,img/renders/face193_45.png,8,0,left,"[-0.08, 0]","[0.18, 0]","[-0.18, 0]",img/renders/face193_0.png,,,,,,,,,0,1,1,5,0,10,10,8,,,,,,,,,,,1.5490981963927857,,,,,,,1,,,,,,,,,,,,,,,,,,,184.4528646300023,None,184.4528646300023,184.66452977600056,184.4528646300023,184.66452977600056,184.4528646300023,None,['1'],184.4528646300023,None,[0.4603666439979861],,,,,,,,12,2022_May_10_1445,flanker-basic_v2,2021.2.3,60.524951668761545,
alt_trialTable_6.csv,img/renders/face995_45.png,img/renders/face995_-45.png,img/renders/face995_-45.png,7,0,right,"[0.08, 0]","[0.18, 0]","[-0.18, 0]",img/renders/face995_0.png,,,,,,,,,0,1,1,5,0,11,11,3,,,,,,,,,,,1.9569138276553106,,,,,,,1,,,,,,,,,,,,,,,,,,,184.97262257400143,None,184.97262257400143,185.1800625370015,184.97262257400143,185.1800625370015,184.97262257400143,None,['8'],184.97262257400143,None,[0.488525902001129],,,,,,,,12,2022_May_10_1445,flanker-basic_v2,2021.2.3,60.524951668761545,
alt_trialTable_6.csv,img/renders/face712_-45.png,img/renders/face712_45.png,img/renders/face712_45.png,8,0,left,"[-0.08, 0]","[0.18, 0]","[-0.18, 0]",img/renders/face712_0.png,,,,,,,,,0,1,1,5,0,12,12,21,,,,,,,,,,,1.7134268537074149,,,,,,,1,,,,,,,,,,,,,,,,,,,185.5056465330017,None,185.5056465330017,185.71175750900147,185.5056465330017,185.71175750900147,185.5056465330017,None,['1'],185.5056465330017,None,[0.4406490869987465],,,,,,,,12,2022_May_10_1445,flanker-basic_v2,2021.2.3,60.524951668761545,
alt_trialTable_6.csv,img/renders/face233_-45.png,img/renders/face233_-45.png,img/renders/face233_-45.png,6,1,left,"[0, 0]","[0.18, 0]","[-0.18, 0]",img/renders/face233_0.png,,,,,,,,,0,1,1,5,0,13,13,17,,,,,,,,,,,1.6212424849699398,,,,,,,1,,,,,,,,,,,,,,,,,,,185.99380456400104,None,185.99380456400104,186.19692514100097,185.99380456400104,186.19692514100097,185.99380456400104,None,['1'],185.99380456400104,None,[0.5394213809995563],,,,,,,,12,2022_May_10_1445,flanker-basic_v2,2021.2.3,60.524951668761545,
alt_trialTable_6.csv,img/renders/face757_45.png,img/renders/face757_45.png,img/renders/face757_45.png,5,1,right,"[0, 0]","[0.18, 0]","[-0.18, 0]",img/renders/face757_0.png,,,,,,,,,0,1,1,5,0,14,14,11,,,,,,,,,,,1.9018036072144289,,,,,,,1,,,,,,,,,,,,,,,,,,,186.58764151300056,None,186.58764151300056,186.79764696300117,186.58764151300056,186.79764696300117,186.58764151300056,None,['8'],186.58764151300056,None,[0.4671181820012862],,,,,,,,12,2022_May_10_1445,flanker-basic_v2,2021.2.3,60.524951668761545,
alt_trialTable_6.csv,img/renders/face094_-45.png,img/renders/face094_45.png,img/renders/face094_45.png,8,0,left,"[-0.08, 0]","[0.18, 0]","[-0.18, 0]",img/renders/face094_0.png,,,,,,,,,0,1,1,5,0,15,15,14,,,,,,,,,,,1.5230460921843687,,,,,,,1,,,,,,,,,,,,,,,,,,,187.10554070700164,None,187.10554070700164,187.31327949499973,187.10554070700164,187.31327949499973,187.10554070700164,None,['1'],187.10554070700164,None,[0.5144917329998862],,,,,,,,12,2022_May_10_1445,flanker-basic_v2,2021.2.3,60.524951668761545,
alt_trialTable_6.csv,img/renders/face595_-45.png,img/renders/face595_45.png,img/renders/face595_45.png,8,0,left,"[-0.08, 0]","[0.18, 0]","[-0.18, 0]",img/renders/face595_0.png,,,,,,,,,0,1,1,5,0,16,16,4,,,,,,,,,,,1.723446893787575,,,,,,,1,,,,,,,,,,,,,,,,,,,187.66900318900298,None,187.66900318900298,187.87921569000173,187.66900318900298,187.87921569000173,187.66900318900298,None,['1'],187.66900318900298,None,[0.5090080920017499],,,,,,,,12,2022_May_10_1445,flanker-basic_v2,2021.2.3,60.524951668761545,
alt_trialTable_6.csv,img/renders/face259_-45.png,img/renders/face259_-45.png,img/renders/face259_-45.png,6,1,left,"[0, 0]","[0.18, 0]","[-0.18, 0]",img/renders/face259_0.png,,,,,,,,,0,1,1,5,0,17,17,27,,,,,,,,,,,1.8727454909819639,,,,,,,1,,,,,,,,,,,,,,,,,,,188.22349257099995,None,188.22349257099995,188.429782479001,188.22349257099995,188.429782479001,188.22349257099995,None,['1'],188.22349257099995,None,[0.5055945790008991],,,,,,,,12,2022_May_10_1445,flanker-basic_v2,2021.2.3,60.524951668761545,
alt_trialTable_6.csv,img/renders/face788_45.png,img/renders/face788_45.png,img/renders/face788_45.png,5,1,right,"[0, 0]","[0.18, 0]","[-0.18, 0]",img/renders/face788_0.png,,,,,,,,,0,1,1,5,0,18,18,28,,,,,,,,,,,1.9218436873747493,,,,,,,1,,,,,,,,,,,,,,,,,,,188.78435884899955,None,188.78435884899955,188.99667284600218,188.78435884899955,188.99667284600218,188.78435884899955,None,['8'],188.78435884899955,None,[0.43075518799741985],,,,,,,,12,2022_May_10_1445,flanker-basic_v2,2021.2.3,60.524951668761545,
alt_trialTable_6.csv,img/renders/face355_45.png,img/renders/face355_-45.png,img/renders/face355_-45.png,7,0,right,"[0.08, 0]","[0.18, 0]","[-0.18, 0]",img/renders/face355_0.png,,,,,,,,,0,1,1,5,0,19,19,7,,,,,,,,,,,1.7214428857715431,,,,,,,1,,,,,,,,,,,,,,,,,,,189.2748477189998,None,189.2748477189998,189.47953855400192,189.2748477189998,189.47953855400192,189.2748477189998,None,['8'],189.2748477189998,None,[0.5423906819996773],,,,,,,,12,2022_May_10_1445,flanker-basic_v2,2021.2.3,60.524951668761545,
alt_trialTable_6.csv,img/renders/face838_-45.png,img/renders/face838_45.png,img/renders/face838_45.png,8,0,left,"[-0.08, 0]","[0.18, 0]","[-0.18, 0]",img/renders/face838_0.png,,,,,,,,,0,1,1,5,0,20,20,18,,,,,,,,,,,1.8597194388777554,,,,,,,1,,,,,,,,,,,,,,,,,,,189.87249804600287,None,189.87249804600287,190.0774121050017,189.87249804600287,190.0774121050017,189.87249804600287,None,['1'],189.87249804600287,None,[0.43371610100075486],,,,,,,,12,2022_May_10_1445,flanker-basic_v2,2021.2.3,60.524951668761545,
alt_trialTable_6.csv,img/renders/face814_45.png,img/renders/face814_45.png,img/renders/face814_45.png,5,1,right,"[0, 0]","[0.18, 0]","[-0.18, 0]",img/renders/face814_0.png,,,,,,,,,0,1,1,5,0,21,21,20,,,,,,,,,,,1.8917835671342684,,,,,,,1,,,,,,,,,,,,,,,,,,,190.36282936300267,None,190.36282936300267,190.5628823070001,190.36282936300267,190.5628823070001,190.36282936300267,None,['8'],190.36282936300267,None,[0.47011153800121974],,,,,,,,12,2022_May_10_1445,flanker-basic_v2,2021.2.3,60.524951668761545,
alt_trialTable_6.csv,img/renders/face612_45.png,img/renders/face612_-45.png,img/renders/face612_-45.png,7,0,right,"[0.08, 0]","[0.18, 0]","[-0.18, 0]",img/renders/face612_0.png,,,,,,,,,0,1,1,5,0,22,22,22,,,,,,,,,,,1.7905811623246493,,,,,,,1,,,,,,,,,,,,,,,,,,,190.88786554500257,None,190.88786554500257,191.09622605200275,190.88786554500257,191.09622605200275,190.88786554500257,None,['8'],190.88786554500257,None,[0.5202243099993211],,,,,,,,12,2022_May_10_1445,flanker-basic_v2,2021.2.3,60.524951668761545,
alt_trialTable_6.csv,img/renders/face810_-45.png,img/renders/face810_-45.png,img/renders/face810_-45.png,6,1,left,"[0, 0]","[0.18, 0]","[-0.18, 0]",img/renders/face810_0.png,,,,,,,,,0,1,1,5,0,23,23,25,,,,,,,,,,,1.882765531062124,,,,,,,1,,,,,,,,,,,,,,,,,,,191.4517461610012,None,191.4517461610012,191.66017013300007,191.4517461610012,191.66017013300007,191.4517461610012,None,['1'],191.4517461610012,None,[0.4252270380020491],,,,,,,,12,2022_May_10_1445,flanker-basic_v2,2021.2.3,60.524951668761545,
alt_trialTable_6.csv,img/renders/face715_-45.png,img/renders/face715_-45.png,img/renders/face715_-45.png,6,1,left,"[0, 0]","[0.18, 0]","[-0.18, 0]",img/renders/face715_0.png,,,,,,,,,0,1,1,5,0,24,24,26,,,,,,,,,,,1.964929859719439,,,,,,,0,,,,,,,,,,,,,,,,,,,191.91987602600057,None,191.91987602600057,192.1293987450008,191.91987602600057,192.1293987450008,191.91987602600057,None,['8'],191.91987602600057,None,[0.3872762309983955],,,,,,,,12,2022_May_10_1445,flanker-basic_v2,2021.2.3,60.524951668761545,
alt_trialTable_6.csv,img/renders/face014_45.png,img/renders/face014_45.png,img/renders/face014_45.png,5,1,right,"[0, 0]","[0.18, 0]","[-0.18, 0]",img/renders/face014_0.png,,,,,,,,,0,1,1,5,0,25,25,16,,,,,,,,,,,1.7264529058116231,,,,,,,1,,,,,,,,,,,,,,,,,,,192.3526733150029,None,192.3526733150029,192.56009619399993,192.3526733150029,192.56009619399993,192.3526733150029,None,['8'],192.3526733150029,None,[0.863681433002057],,,,,,,,12,2022_May_10_1445,flanker-basic_v2,2021.2.3,60.524951668761545,
alt_trialTable_6.csv,img/renders/face931_45.png,img/renders/face931_-45.png,img/renders/face931_-45.png,7,0,right,"[0.08, 0]","[0.18, 0]","[-0.18, 0]",img/renders/face931_0.png,,,,,,,,,0,1,1,5,0,26,26,19,,,,,,,,,,,1.717434869739479,,,,,,,1,,,,,,,,,,,,,,,,,,,193.273809084003,None,193.273809084003,193.47680879900145,193.273809084003,193.47680879900145,193.273809084003,None,['8'],193.273809084003,None,[0.4788770420018409],,,,,,,,12,2022_May_10_1445,flanker-basic_v2,2021.2.3,60.524951668761545,
alt_trialTable_6.csv,img/renders/face762_45.png,img/renders/face762_-45.png,img/renders/face762_-45.png,7,0,right,"[0.08, 0]","[0.18, 0]","[-0.18, 0]",img/renders/face762_0.png,,,,,,,,,0,1,1,5,0,27,27,31,,,,,,,,,,,1.5981963927855711,,,,,,,1,,,,,,,,,,,,,,,,,,,193.79886877600075,None,193.79886877600075,194.01225882500148,193.79886877600075,194.01225882500148,193.79886877600075,None,['8'],193.79886877600075,None,[0.5434790849976707],,,,,,,,12,2022_May_10_1445,flanker-basic_v2,2021.2.3,60.524951668761545,
alt_trialTable_6.csv,img/renders/face756_-45.png,img/renders/face756_-45.png,img/renders/face756_-45.png,6,1,left,"[0, 0]","[0.18, 0]","[-0.18, 0]",img/renders/face756_0.png,,,,,,,,,0,1,1,5,0,28,28,9,,,,,,,,,,,1.5420841683366735,,,,,,,1,,,,,,,,,,,,,,,,,,,194.38550898299945,None,194.38550898299945,194.595138744,194.38550898299945,194.595138744,194.38550898299945,None,['1'],194.38550898299945,None,[0.43677880599716445],,,,,,,,12,2022_May_10_1445,flanker-basic_v2,2021.2.3,60.524951668761545,
alt_trialTable_6.csv,img/renders/face293_45.png,img/renders/face293_-45.png,img/renders/face293_-45.png,7,0,right,"[0.08, 0]","[0.18, 0]","[-0.18, 0]",img/renders/face293_0.png,,,,,,,,,0,1,1,5,0,29,29,12,,,,,,,,,,,1.6072144288577153,,,,,,,1,,,,,,,,,,,,,,,,,,,194.89020459800304,None,194.89020459800304,195.09524679400056,194.89020459800304,195.09524679400056,194.89020459800304,None,['8'],194.89020459800304,None,[0.3431947089993628],,,,,,,,12,2022_May_10_1445,flanker-basic_v2,2021.2.3,60.524951668761545,
alt_trialTable_6.csv,img/renders/face834_45.png,img/renders/face834_45.png,img/renders/face834_45.png,5,1,right,"[0, 0]","[0.18, 0]","[-0.18, 0]",img/renders/face834_0.png,,,,,,,,,0,1,1,5,0,30,30,29,,,,,,,,,,,1.967935871743487,,,,,,,1,,,,,,,,,,,,,,,,,,,195.28405341500184,None,195.28405341500184,195.49536498100133,195.28405341500184,195.49536498100133,195.28405341500184,None,['8'],195.28405341500184,None,[0.5111520600003132],,,,,,,,12,2022_May_10_1445,flanker-basic_v2,2021.2.3,60.524951668761545,
alt_trialTable_6.csv,img/renders/face816_45.png,img/renders/face816_-45.png,img/renders/face816_-45.png,7,0,right,"[0.08, 0]","[0.18, 0]","[-0.18, 0]",img/renders/face816_0.png,,,,,,,,,0,1,1,5,0,31,31,23,,,,,,,,,,,1.7154308617234468,,,,,,,1,,,,,,,,,,,,,,,,,,,195.85229947100015,None,195.85229947100015,196.06099801300297,195.85229947100015,196.06099801300297,195.85229947100015,None,['8'],195.85229947100015,None,[0.44083199400120066],,,,,,,,12,2022_May_10_1445,flanker-basic_v2,2021.2.3,60.524951668761545,
alt_trialTable_6.csv,,,,,,,,,,,,,,,,,,,0,1,1,5,,,,,,,,,,,,,,,,,,,,,,,,,,,,,,,,,,,,,,,,,,,,,,,,,,,,,2,196.30910211599985,None,8,1.7960547290022078,206.30701207600214,None,12,2022_May_10_1445,flanker-basic_v2,2021.2.3,60.524951668761545,
alt_trialTable_3.csv,img/renders/face512_45.png,img/renders/face512_45.png,img/renders/face512_45.png,5,1,right,"[0, 0]","[0.18, 0]","[-0.18, 0]",img/renders/face512_0.png,,,,,,,,,0,2,2,2,0,0,0,19,,,,,,,,,212.5561070110016,None,1.6973947895791581,,,,,,,1,,,,,,,,,,,,,208.12270967600125,None,8,4.411121532000834,208.12270967600125,None,214.6035061620023,None,214.6035061620023,214.80626349399972,214.6035061620023,214.80626349399972,214.6035061620023,None,['8'],214.6035061620023,None,[0.43563647200062405],,,,,,,,12,2022_May_10_1445,flanker-basic_v2,2021.2.3,60.524951668761545,
alt_trialTable_3.csv,img/renders/face742_-45.png,img/renders/face742_-45.png,img/renders/face742_-45.png,6,1,left,"[0, 0]","[0.18, 0]","[-0.18, 0]",img/renders/face742_0.png,,,,,,,,,0,2,2,2,0,1,1,31,,,,,,,,,,,1.8517034068136273,,,,,,,1,,,,,,,,,,,,,,,,,,,215.08356009800264,None,215.08356009800264,215.28904830600004,215.08356009800264,215.28904830600004,215.08356009800264,None,['1'],215.08356009800264,None,[0.45063467900035903],,,,,,,,12,2022_May_10_1445,flanker-basic_v2,2021.2.3,60.524951668761545,
alt_trialTable_3.csv,img/renders/face872_-45.png,img/renders/face872_45.png,img/renders/face872_45.png,8,0,left,"[-0.08, 0]","[0.18, 0]","[-0.18, 0]",img/renders/face872_0.png,,,,,,,,,0,2,2,2,0,2,2,27,,,,,,,,,,,1.9609218436873748,,,,,,,1,,,,,,,,,,,,,,,,,,,215.58046946100148,None,215.58046946100148,215.7872808610009,215.58046946100148,215.7872808610009,215.58046946100148,None,['1'],215.58046946100148,None,[0.3916560580000805],,,,,,,,12,2022_May_10_1445,flanker-basic_v2,2021.2.3,60.524951668761545,
alt_trialTable_3.csv,img/renders/face971_-45.png,img/renders/face971_45.png,img/renders/face971_45.png,8,0,left,"[-0.08, 0]","[0.18, 0]","[-0.18, 0]",img/renders/face971_0.png,,,,,,,,,0,2,2,2,0,3,3,15,,,,,,,,,,,1.5791583166332666,,,,,,,1,,,,,,,,,,,,,,,,,,,216.03666710499965,None,216.03666710499965,216.2395787250025,216.03666710499965,216.2395787250025,216.03666710499965,None,['1'],216.03666710499965,None,[0.37652020099994843],,,,,,,,12,2022_May_10_1445,flanker-basic_v2,2021.2.3,60.524951668761545,
alt_trialTable_3.csv,img/renders/face124_45.png,img/renders/face124_45.png,img/renders/face124_45.png,5,1,right,"[0, 0]","[0.18, 0]","[-0.18, 0]",img/renders/face124_0.png,,,,,,,,,0,2,2,2,0,4,4,21,,,,,,,,,,,1.8226452905811623,,,,,,,1,,,,,,,,,,,,,,,,,,,216.46313923300113,None,216.46313923300113,216.67079669000304,216.46313923300113,216.67079669000304,216.46313923300113,None,['8'],216.46313923300113,None,[0.34702343300159555],,,,,,,,12,2022_May_10_1445,flanker-basic_v2,2021.2.3,60.524951668761545,
alt_trialTable_3.csv,img/renders/face001_-45.png,img/renders/face001_45.png,img/renders/face001_45.png,8,0,left,"[-0.08, 0]","[0.18, 0]","[-0.18, 0]",img/renders/face001_0.png,,,,,,,,,0,2,2,2,0,5,5,28,,,,,,,,,,,1.714428857715431,,,,,,,1,,,,,,,,,,,,,,,,,,,216.860477764003,None,216.860477764003,217.07228405000205,216.860477764003,217.07228405000205,216.860477764003,None,['1'],216.860477764003,None,[0.32961431600051583],,,,,,,,12,2022_May_10_1445,flanker-basic_v2,2021.2.3,60.524951668761545,
alt_trialTable_3.csv,img/renders/face777_-45.png,img/renders/face777_45.png,img/renders/face777_45.png,8,0,left,"[-0.08, 0]","[0.18, 0]","[-0.18, 0]",img/renders/face777_0.png,,,,,,,,,0,2,2,2,0,6,6,26,,,,,,,,,,,1.9839679358717435,,,,,,,1,,,,,,,,,,,,,,,,,,,217.25781173900032,None,217.25781173900032,217.47131343,217.25781173900032,217.47131343,217.25781173900032,None,['1'],217.25781173900032,None,[0.287371198002802],,,,,,,,12,2022_May_10_1445,flanker-basic_v2,2021.2.3,60.524951668761545,
alt_trialTable_3.csv,img/renders/face843_-45.png,img/renders/face843_45.png,img/renders/face843_45.png,8,0,left,"[-0.08, 0]","[0.18, 0]","[-0.18, 0]",img/renders/face843_0.png,,,,,,,,,0,2,2,2,0,7,7,11,,,,,,,,,,,1.8997995991983967,,,,,,,1,,,,,,,,,,,,,,,,,,,217.60537578799995,None,217.60537578799995,217.8047139520022,217.60537578799995,217.8047139520022,217.60537578799995,None,['1'],217.60537578799995,None,[0.36684580800283584],,,,,,,,12,2022_May_10_1445,flanker-basic_v2,2021.2.3,60.524951668761545,
alt_trialTable_3.csv,img/renders/face098_-45.png,img/renders/face098_45.png,img/renders/face098_45.png,8,0,left,"[-0.08, 0]","[0.18, 0]","[-0.18, 0]",img/renders/face098_0.png,,,,,,,,,0,2,2,2,0,8,8,2,,,,,,,,,,,1.8396793587174347,,,,,,,1,,,,,,,,,,,,,,,,,,,218.03768978000153,None,218.03768978000153,218.2380096800007,218.03768978000153,218.2380096800007,218.03768978000153,None,['1'],218.03768978000153,None,[0.39640324900028645],,,,,,,,12,2022_May_10_1445,flanker-basic_v2,2021.2.3,60.524951668761545,
alt_trialTable_3.csv,img/renders/face771_45.png,img/renders/face771_-45.png,img/renders/face771_-45.png,7,0,right,"[0.08, 0]","[0.18, 0]","[-0.18, 0]",img/renders/face771_0.png,,,,,,,,,0,2,2,2,0,9,9,16,,,,,,,,,,,1.8597194388777554,,,,,,,1,,,,,,,,,,,,,,,,,,,218.47642718300267,None,218.47642718300267,218.68612519599992,218.47642718300267,218.68612519599992,218.47642718300267,None,['8'],218.47642718300267,None,[0.35769551699922886],,,,,,,,12,2022_May_10_1445,flanker-basic_v2,2021.2.3,60.524951668761545,
alt_trialTable_3.csv,img/renders/face529_-45.png,img/renders/face529_-45.png,img/renders/face529_-45.png,6,1,left,"[0, 0]","[0.18, 0]","[-0.18, 0]",img/renders/face529_0.png,,,,,,,,,0,2,2,2,0,10,10,8,,,,,,,,,,,1.540080160320641,,,,,,,1,,,,,,,,,,,,,,,,,,,218.87579392000043,None,218.87579392000043,219.0877123829996,218.87579392000043,219.0877123829996,218.87579392000043,None,['1'],218.87579392000043,None,[0.2673521430006076],,,,,,,,12,2022_May_10_1445,flanker-basic_v2,2021.2.3,60.524951668761545,
alt_trialTable_3.csv,img/renders/face119_-45.png,img/renders/face119_-45.png,img/renders/face119_-45.png,6,1,left,"[0, 0]","[0.18, 0]","[-0.18, 0]",img/renders/face119_0.png,,,,,,,,,0,2,2,2,0,11,11,1,,,,,,,,,,,1.905811623246493,,,,,,,1,,,,,,,,,,,,,,,,,,,219.19578472700232,None,219.19578472700232,219.4038630210016,219.19578472700232,219.4038630210016,219.19578472700232,None,['1'],219.19578472700232,None,[0.27235162800207036],,,,,,,,12,2022_May_10_1445,flanker-basic_v2,2021.2.3,60.524951668761545,
alt_trialTable_3.csv,img/renders/face844_45.png,img/renders/face844_45.png,img/renders/face844_45.png,5,1,right,"[0, 0]","[0.18, 0]","[-0.18, 0]",img/renders/face844_0.png,,,,,,,,,0,2,2,2,0,12,12,12,,,,,,,,,,,1.875751503006012,,,,,,,0,,,,,,,,,,,,,,,,,,,219.51248428700274,None,219.51248428700274,219.72024456200234,219.51248428700274,219.72024456200234,219.51248428700274,None,['1'],219.51248428700274,None,[0.2916427010022744],,,,,,,,12,2022_May_10_1445,flanker-basic_v2,2021.2.3,60.524951668761545,
alt_trialTable_3.csv,img/renders/face445_-45.png,img/renders/face445_-45.png,img/renders/face445_-45.png,6,1,left,"[0, 0]","[0.18, 0]","[-0.18, 0]",img/renders/face445_0.png,,,,,,,,,0,2,2,2,0,13,13,0,,,,,,,,,,,1.8567134268537075,,,,,,,0,,,,,,,,,,,,,,,,,,,219.86384256200108,None,219.86384256200108,None,219.86384256200108,None,219.86384256200108,None,['8'],219.86384256200108,None,[0.1553025749999506],,,,,,,,12,2022_May_10_1445,flanker-basic_v2,2021.2.3,60.524951668761545,
alt_trialTable_3.csv,img/renders/face148_-45.png,img/renders/face148_-45.png,img/renders/face148_-45.png,6,1,left,"[0, 0]","[0.18, 0]","[-0.18, 0]",img/renders/face148_0.png,,,,,,,,,0,2,2,2,0,14,14,30,,,,,,,,,,,1.9639278557114228,,,,,,,1,,,,,,,,,,,,,,,,,,,220.0607348170015,None,220.0607348170015,220.27082944500216,220.0607348170015,220.27082944500216,220.0607348170015,None,['1'],220.0607348170015,None,[0.8187189900017984],,,,,,,,12,2022_May_10_1445,flanker-basic_v2,2021.2.3,60.524951668761545,
alt_trialTable_3.csv,img/renders/face768_45.png,img/renders/face768_-45.png,img/renders/face768_-45.png,7,0,right,"[0.08, 0]","[0.18, 0]","[-0.18, 0]",img/renders/face768_0.png,,,,,,,,,0,2,2,2,0,15,15,22,,,,,,,,,,,1.9959919839679359,,,,,,,0,,,,,,,,,,,,,,,,,,,220.9304055720022,None,220.9304055720022,221.13774288200148,220.9304055720022,221.13774288200148,220.9304055720022,None,['1'],220.9304055720022,None,[0.3294043429996236],,,,,,,,12,2022_May_10_1445,flanker-basic_v2,2021.2.3,60.524951668761545,
alt_trialTable_3.csv,img/renders/face283_-45.png,img/renders/face283_-45.png,img/renders/face283_-45.png,6,1,left,"[0, 0]","[0.18, 0]","[-0.18, 0]",img/renders/face283_0.png,,,,,,,,,0,2,2,2,0,16,16,18,,,,,,,,,,,1.6823647294589177,,,,,,,0,,,,,,,,,,,,,,,,,,,221.32293050700173,None,221.32293050700173,None,221.32293050700173,None,221.32293050700173,None,['8'],221.32293050700173,None,[0.09217992100093397],,,,,,,,12,2022_May_10_1445,flanker-basic_v2,2021.2.3,60.524951668761545,
alt_trialTable_3.csv,img/renders/face755_45.png,img/renders/face755_-45.png,img/renders/face755_-45.png,7,0,right,"[0.08, 0]","[0.18, 0]","[-0.18, 0]",img/renders/face755_0.png,,,,,,,,,0,2,2,2,0,17,17,4,,,,,,,,,,,1.8466933867735469,,,,,,,0,,,,,,,,,,,,,,,,,,,221.4579679430026,None,221.4579679430026,221.66922020300262,221.4579679430026,221.66922020300262,221.4579679430026,None,None,221.4579679430026,None,,,,,,,,,12,2022_May_10_1445,flanker-basic_v2,2021.2.3,60.524951668761545,
alt_trialTable_3.csv,img/renders/face651_45.png,img/renders/face651_45.png,img/renders/face651_45.png,5,1,right,"[0, 0]","[0.18, 0]","[-0.18, 0]",img/renders/face651_0.png,,,,,,,,,0,2,2,2,0,18,18,29,,,,,,,,,,,1.7334669338677353,,,,,,,1,,,,,,,,,,,,,,,,,,,223.34420399699957,223.34420399699957,223.34420399699957,None,223.34420399699957,None,223.34420399699957,223.34420399699957,['8'],223.34420399699957,223.34420399699957,[0.07889149600305245],,,,,,,,12,2022_May_10_1445,flanker-basic_v2,2021.2.3,60.524951668761545,
alt_trialTable_3.csv,img/renders/face181_45.png,img/renders/face181_45.png,img/renders/face181_45.png,5,1,right,"[0, 0]","[0.18, 0]","[-0.18, 0]",img/renders/face181_0.png,,,,,,,,,0,2,2,2,0,19,19,23,,,,,,,,,,,1.6823647294589177,,,,,,,1,,,,,,,,,,,,,,,,,,,223.47484559200166,None,223.47484559200166,223.6870800910001,223.47484559200166,223.6870800910001,223.47484559200166,None,['8'],223.47484559200166,None,[0.5482786239990673],,,,,,,,12,2022_May_10_1445,flanker-basic_v2,2021.2.3,60.524951668761545,
alt_trialTable_3.csv,img/renders/face390_45.png,img/renders/face390_45.png,img/renders/face390_45.png,5,1,right,"[0, 0]","[0.18, 0]","[-0.18, 0]",img/renders/face390_0.png,,,,,,,,,0,2,2,2,0,20,20,5,,,,,,,,,,,1.5561122244488979,,,,,,,1,,,,,,,,,,,,,,,,,,,224.07416980000198,None,224.07416980000198,224.28598685600082,224.07416980000198,224.28598685600082,224.07416980000198,None,['8'],224.07416980000198,None,[0.37225201500041294],,,,,,,,12,2022_May_10_1445,flanker-basic_v2,2021.2.3,60.524951668761545,
alt_trialTable_3.csv,img/renders/face343_45.png,img/renders/face343_-45.png,img/renders/face343_-45.png,7,0,right,"[0.08, 0]","[0.18, 0]","[-0.18, 0]",img/renders/face343_0.png,,,,,,,,,0,2,2,2,0,21,21,20,,,,,,,,,,,1.8687374749498997,,,,,,,0,,,,,,,,,,,,,,,,,,,224.48872318299982,None,224.48872318299982,224.70325181600128,224.48872318299982,224.70325181600128,224.48872318299982,None,['1'],224.48872318299982,None,[0.36036851499738987],,,,,,,,12,2022_May_10_1445,flanker-basic_v2,2021.2.3,60.524951668761545,
alt_trialTable_3.csv,img/renders/face897_-45.png,img/renders/face897_-45.png,img/renders/face897_-45.png,6,1,left,"[0, 0]","[0.18, 0]","[-0.18, 0]",img/renders/face897_0.png,,,,,,,,,0,2,2,2,0,22,22,25,,,,,,,,,,,1.5480961923847694,,,,,,,1,,,,,,,,,,,,,,,,,,,224.89157510199948,None,224.89157510199948,225.0863877740012,224.89157510199948,225.0863877740012,224.89157510199948,None,['1'],224.89157510199948,None,[0.5875773890002165],,,,,,,,12,2022_May_10_1445,flanker-basic_v2,2021.2.3,60.524951668761545,
alt_trialTable_3.csv,img/renders/face684_45.png,img/renders/face684_-45.png,img/renders/face684_-45.png,7,0,right,"[0.08, 0]","[0.18, 0]","[-0.18, 0]",img/renders/face684_0.png,,,,,,,,,0,2,2,2,0,23,23,7,,,,,,,,,,,1.7394789579158316,,,,,,,1,,,,,,,,,,,,,,,,,,,225.52434468700085,None,225.52434468700085,225.73748598300153,225.52434468700085,225.73748598300153,225.52434468700085,None,['8'],225.52434468700085,None,[0.42880993699873216],,,,,,,,12,2022_May_10_1445,flanker-basic_v2,2021.2.3,60.524951668761545,
alt_trialTable_3.csv,img/renders/face225_45.png,img/renders/face225_-45.png,img/renders/face225_-45.png,7,0,right,"[0.08, 0]","[0.18, 0]","[-0.18, 0]",img/renders/face225_0.png,,,,,,,,,0,2,2,2,0,24,24,17,,,,,,,,,,,1.9529058116232463,,,,,,,0,,,,,,,,,,,,,,,,,,,225.99454434400104,None,225.99454434400104,None,225.99454434400104,None,225.99454434400104,None,['1'],225.99454434400104,None,[0.0325042750009743],,,,,,,,12,2022_May_10_1445,flanker-basic_v2,2021.2.3,60.524951668761545,
alt_trialTable_3.csv,img/renders/face297_45.png,img/renders/face297_-45.png,img/renders/face297_-45.png,7,0,right,"[0.08, 0]","[0.18, 0]","[-0.18, 0]",img/renders/face297_0.png,,,,,,,,,0,2,2,2,0,25,25,3,,,,,,,,,,,1.7224448897795592,,,,,,,1,,,,,,,,,,,,,,,,,,,226.07701826500124,None,226.07701826500124,226.28682091600058,226.07701826500124,226.28682091600058,226.07701826500124,None,['8'],226.07701826500124,None,[0.8121435650027706],,,,,,,,12,2022_May_10_1445,flanker-basic_v2,2021.2.3,60.524951668761545,
alt_trialTable_3.csv,img/renders/face505_45.png,img/renders/face505_-45.png,img/renders/face505_-45.png,7,0,right,"[0.08, 0]","[0.18, 0]","[-0.18, 0]",img/renders/face505_0.png,,,,,,,,,0,2,2,2,0,26,26,13,,,,,,,,,,,1.7004008016032064,,,,,,,1,,,,,,,,,,,,,,,,,,,226.95143414199993,None,226.95143414199993,227.15431842399994,226.95143414199993,227.15431842399994,226.95143414199993,None,['8'],226.95143414199993,None,[0.41773011999976006],,,,,,,,12,2022_May_10_1445,flanker-basic_v2,2021.2.3,60.524951668761545,
alt_trialTable_3.csv,img/renders/face189_45.png,img/renders/face189_45.png,img/renders/face189_45.png,5,1,right,"[0, 0]","[0.18, 0]","[-0.18, 0]",img/renders/face189_0.png,,,,,,,,,0,2,2,2,0,27,27,24,,,,,,,,,,,1.9488977955911824,,,,,,,1,,,,,,,,,,,,,,,,,,,227.43336147000082,None,227.43336147000082,227.6370431940013,227.43336147000082,227.6370431940013,227.43336147000082,None,['8'],227.43336147000082,None,[0.45592376599961426],,,,,,,,12,2022_May_10_1445,flanker-basic_v2,2021.2.3,60.524951668761545,
alt_trialTable_3.csv,img/renders/face907_-45.png,img/renders/face907_45.png,img/renders/face907_45.png,8,0,left,"[-0.08, 0]","[0.18, 0]","[-0.18, 0]",img/renders/face907_0.png,,,,,,,,,0,2,2,2,0,28,28,9,,,,,,,,,,,1.654308617234469,,,,,,,1,,,,,,,,,,,,,,,,,,,227.95518008200088,None,227.95518008200088,228.1691462100025,227.95518008200088,228.1691462100025,227.95518008200088,None,['1'],227.95518008200088,None,[0.4901927130013064],,,,,,,,12,2022_May_10_1445,flanker-basic_v2,2021.2.3,60.524951668761545,
alt_trialTable_3.csv,img/renders/face802_-45.png,img/renders/face802_45.png,img/renders/face802_45.png,8,0,left,"[-0.08, 0]","[0.18, 0]","[-0.18, 0]",img/renders/face802_0.png,,,,,,,,,0,2,2,2,0,29,29,10,,,,,,,,,,,1.630260521042084,,,,,,,1,,,,,,,,,,,,,,,,,,,228.49494964300175,None,228.49494964300175,228.7029361740024,228.49494964300175,228.7029361740024,228.49494964300175,None,['1'],228.49494964300175,None,[0.34822942599930684],,,,,,,,12,2022_May_10_1445,flanker-basic_v2,2021.2.3,60.524951668761545,
alt_trialTable_3.csv,img/renders/face898_-45.png,img/renders/face898_-45.png,img/renders/face898_-45.png,6,1,left,"[0, 0]","[0.18, 0]","[-0.18, 0]",img/renders/face898_0.png,,,,,,,,,0,2,2,2,0,30,30,14,,,,,,,,,,,1.5961923847695392,,,,,,,1,,,,,,,,,,,,,,,,,,,228.89532984900143,None,228.89532984900143,229.10155653400216,228.89532984900143,229.10155653400216,228.89532984900143,None,['1'],228.89532984900143,None,[0.415886689999752],,,,,,,,12,2022_May_10_1445,flanker-basic_v2,2021.2.3,60.524951668761545,
alt_trialTable_3.csv,img/renders/face182_45.png,img/renders/face182_45.png,img/renders/face182_45.png,5,1,right,"[0, 0]","[0.18, 0]","[-0.18, 0]",img/renders/face182_0.png,,,,,,,,,0,2,2,2,0,31,31,6,,,,,,,,,,,1.6723446893787575,,,,,,,0,,,,,,,,,,,,,,,,,,,229.35687424900243,None,229.35687424900243,229.5687423950003,229.35687424900243,229.5687423950003,229.35687424900243,None,['1'],229.35687424900243,None,[0.3503196220008249],,,,,,,,12,2022_May_10_1445,flanker-basic_v2,2021.2.3,60.524951668761545,
,,,,,,,,,,,,,,,,,,,,,,,,,,,,,,,,,,,,,,,,,,,,,,,,,,,,,,,,,,,,,,,,,,,,,,,,,,,1,,,,,,,,,,,,
