whichBlock,middleStim,leftStim,rightStim,stimNum,congruent,target,locationC,locationR,locationL,straightFace,imageSize,prac_block_loop.thisRepN,prac_block_loop.thisTrialN,prac_block_loop.thisN,prac_block_loop.thisIndex,prac_trial_loop.thisRepN,prac_trial_loop.thisTrialN,prac_trial_loop.thisN,prac_trial_loop.thisIndex,first_block_loop.thisRepN,first_block_loop.thisTrialN,first_block_loop.thisN,first_block_loop.thisIndex,firstTrial_loop.thisRepN,firstTrial_loop.thisTrialN,firstTrial_loop.thisN,firstTrial_loop.thisIndex,prac_blockText.started,prac_blockText.stopped,prac_reminder_text.started,prac_reminder_text.stopped,prac_reminder_keyResp.keys,prac_reminder_keyResp.rt,prac_reminder_keyResp.started,prac_reminder_keyResp.stopped,initFixation_img.started,initFixation_img.stopped,ISI,prac_centerImg.started,prac_centerImg.stopped,prac_stim_keyResp.keys,prac_stim_keyResp.rt,prac_stim_keyResp.started,prac_stim_keyResp.stopped,accuracy,prac_blockFeed_text.started,prac_blockFeed_text.stopped,prac_pressContinue.started,prac_pressContinue.stopped,prac_blockFeed_keyResp.keys,prac_blockFeed_keyResp.rt,prac_blockFeed_keyResp.started,prac_blockFeed_keyResp.stopped,key_resp_counterbalance1.keys,key_resp_counterbalance1.rt,key_resp_counterbalance1.started,key_resp_counterbalance1.stopped,firstT_text1.started,firstT_text1.stopped,firstT_key.keys,firstT_key.rt,firstT_key.started,firstT_key.stopped,bigFace_2.started,bigFace_2.stopped,cover_background.started,cover_background.stopped,task_centerImg_3.started,task_centerImg_3.stopped,task_fixImg_3.started,task_fixImg_3.stopped,first_task_stim_keyResp.keys,first_task_stim_keyResp.started,first_task_stim_keyResp.stopped,first_task_stim_keyResp.rt,blockFeedCat,id,date,expName,psychopyVersion,frameRate,
trialTable_practice.csv,img/renders/face581_45.png,img/renders/face581_45.png,img/renders/face581_45.png,5,1,right,"[0, 0]","[0.13, 0]","[-0.13, 0]",,,0,0,0,0,0,0,0,8,,,,,,,,,23.201156103001267,None,23.201156103001267,None,8,2.1790925710010924,23.201156103001267,None,25.442348153999774,None,1.9529058116232463,27.488271133996022,27.694853116001468,['8'],[0.4930769290003809],27.488271133996022,None,1,,,,,,,,,,,,,,,,,,,,,,,,,,,,,,,,12,2022_May_10_1916,flanker-basic_v2,2021.2.3,59.97264983204968,
trialTable_practice.csv,img/renders/face028_45.png,img/renders/face028_-45.png,img/renders/face028_-45.png,7,0,right,"[0.058, 0]","[0.14, 0]","[-0.14, 0]",,,0,0,0,0,0,1,1,17,,,,,,,,,,,,,,,,,,,1.9488977955911824,29.463109710995923,29.67770987199765,['8'],[0.4692129750037566],29.463109710995923,29.463109710995923,1,,,,,,,,,,,,,,,,,,,,,,,,,,,,,,,,12,2022_May_10_1916,flanker-basic_v2,2021.2.3,59.97264983204968,
trialTable_practice.csv,img/renders/face013_-45.png,img/renders/face013_-45.png,img/renders/face013_-45.png,6,1,left,"[0, 0]","[0.13, 0]","[-0.13, 0]",,,0,0,0,0,0,2,2,18,,,,,,,,,,,,,,,,,,,1.7975951903807617,31.446650134996162,31.66078397900128,['1'],[0.3929051939994679],31.446650134996162,31.446650134996162,1,,,,,,,,,,,,,,,,,,,,,,,,,,,,,,,,12,2022_May_10_1916,flanker-basic_v2,2021.2.3,59.97264983204968,
trialTable_practice.csv,img/renders/face351_45.png,img/renders/face351_-45.png,img/renders/face351_-45.png,7,0,right,"[0.058, 0]","[0.14, 0]","[-0.14, 0]",,,0,0,0,0,0,3,3,10,,,,,,,,,,,,,,,,,,,1.9318637274549098,33.26438367200171,33.476486872998066,['8'],[0.37092352699983167],33.26438367200171,33.26438367200171,1,,,,,,,,,,,,,,,,,,,,,,,,,,,,,,,,12,2022_May_10_1916,flanker-basic_v2,2021.2.3,59.97264983204968,
trialTable_practice.csv,img/renders/face037_-45.png,img/renders/face037_45.png,img/renders/face037_45.png,8,0,left,"[-0.058, 0]","[0.14, 0]","[-0.14, 0]",,,0,0,0,0,0,4,4,3,,,,,,,,,,,,,,,,,,,1.5190380761523048,35.2297505289971,35.4429175059995,['1'],[0.47056831199734006],35.2297505289971,35.2297505289971,1,,,,,,,,,,,,,,,,,,,,,,,,,,,,,,,,12,2022_May_10_1916,flanker-basic_v2,2021.2.3,59.97264983204968,
trialTable_practice.csv,img/renders/face040_45.png,img/renders/face040_-45.png,img/renders/face040_-45.png,7,0,right,"[0.058, 0]","[0.14, 0]","[-0.14, 0]",,,0,0,0,0,0,5,5,7,,,,,,,,,,,,,,,,,,,1.939879759519038,36.77757159299654,36.99252261299989,['8'],[0.5258230330000515],36.77757159299654,36.77757159299654,1,,,,,,,,,,,,,,,,,,,,,,,,,,,,,,,,12,2022_May_10_1916,flanker-basic_v2,2021.2.3,59.97264983204968,
trialTable_practice.csv,img/renders/face120_-45.png,img/renders/face120_-45.png,img/renders/face120_-45.png,6,1,left,"[0, 0]","[0.13, 0]","[-0.13, 0]",,,0,0,0,0,0,6,6,16,,,,,,,,,,,,,,,,,,,1.8346693386773547,38.74345861299662,38.95897225000226,['1'],[0.38188879700464895],38.74345861299662,38.74345861299662,1,,,,,,,,,,,,,,,,,,,,,,,,,,,,,,,,12,2022_May_10_1916,flanker-basic_v2,2021.2.3,59.97264983204968,
trialTable_practice.csv,img/renders/face418_45.png,img/renders/face418_-45.png,img/renders/face418_-45.png,7,0,right,"[0.058, 0]","[0.14, 0]","[-0.14, 0]",,,0,0,0,0,0,7,7,19,,,,,,,,,,,,,,,,,,,1.9208416833667334,40.61155467000208,40.82504187199811,['8'],[0.41668571600166615],40.61155467000208,40.61155467000208,1,,,,,,,,,,,,,,,,,,,,,,,,,,,,,,,,12,2022_May_10_1916,flanker-basic_v2,2021.2.3,59.97264983204968,
trialTable_practice.csv,img/renders/face586_-45.png,img/renders/face586_-45.png,img/renders/face586_-45.png,6,1,left,"[0, 0]","[0.13, 0]","[-0.13, 0]",,,0,0,0,0,0,8,8,2,,,,,,,,,,,,,,,,,,,1.7625250501002003,42.55942636899999,42.77462167899648,['1'],[0.3829054269954213],42.55942636899999,42.55942636899999,1,,,,,,,,,,,,,,,,,,,,,,,,,,,,,,,,12,2022_May_10_1916,flanker-basic_v2,2021.2.3,59.97264983204968,
trialTable_practice.csv,img/renders/face395_-45.png,img/renders/face395_-45.png,img/renders/face395_-45.png,6,1,left,"[0, 0]","[0.13, 0]","[-0.13, 0]",,,0,0,0,0,0,9,9,5,,,,,,,,,,,,,,,,,,,1.75250501002004,44.33867923499929,44.54046458499943,['8'],[0.3395789389978745],44.33867923499929,44.33867923499929,0,,,,,,,,,,,,,,,,,,,,,,,,,,,,,,,,12,2022_May_10_1916,flanker-basic_v2,2021.2.3,59.97264983204968,
trialTable_practice.csv,img/renders/face634_-45.png,img/renders/face634_-45.png,img/renders/face634_-45.png,6,1,left,"[0, 0]","[0.13, 0]","[-0.13, 0]",,,0,0,0,0,0,10,10,11,,,,,,,,,,,,,,,,,,,1.8006012024048095,46.10936965599831,46.32350587900146,['1'],[0.4609139129970572],46.10936965599831,46.10936965599831,1,,,,,,,,,,,,,,,,,,,,,,,,,,,,,,,,12,2022_May_10_1916,flanker-basic_v2,2021.2.3,59.97264983204968,
trialTable_practice.csv,img/renders/face704_45.png,img/renders/face704_45.png,img/renders/face704_45.png,5,1,right,"[0, 0]","[0.13, 0]","[-0.13, 0]",,,0,0,0,0,0,11,11,9,,,,,,,,,,,,,,,,,,,1.533066132264529,47.943400903997826,48.156992338001146,None,,47.943400903997826,47.943400903997826,1,,,,,,,,,,,,,,,,,,,,,,,,,,,,,,,,12,2022_May_10_1916,flanker-basic_v2,2021.2.3,59.97264983204968,
trialTable_practice.csv,img/renders/face482_45.png,img/renders/face482_45.png,img/renders/face482_45.png,5,1,right,"[0, 0]","[0.13, 0]","[-0.13, 0]",,,0,0,0,0,0,12,12,15,,,,,,,,,,,,,,,,,,,1.656312625250501,49.50583619999816,49.70632063299854,['8'],[0.4198051960047451],49.50583619999816,49.50583619999816,1,,,,,,,,,,,,,,,,,,,,,,,,,,,,,,,,12,2022_May_10_1916,flanker-basic_v2,2021.2.3,59.97264983204968,
trialTable_practice.csv,img/renders/face211_45.png,img/renders/face211_45.png,img/renders/face211_45.png,5,1,right,"[0, 0]","[0.13, 0]","[-0.13, 0]",,,0,0,0,0,0,13,13,4,,,,,,,,,,,,,,,,,,,1.6142284569138277,51.18688637299783,51.38876219699887,['1'],[0.47050980199855985],51.18688637299783,51.18688637299783,0,,,,,,,,,,,,,,,,,,,,,,,,,,,,,,,,12,2022_May_10_1916,flanker-basic_v2,2021.2.3,59.97264983204968,
trialTable_practice.csv,img/renders/face602_-45.png,img/renders/face602_45.png,img/renders/face602_45.png,8,0,left,"[-0.058, 0]","[0.14, 0]","[-0.14, 0]",,,0,0,0,0,0,14,14,0,,,,,,,,,,,,,,,,,,,1.8917835671342684,52.82067420399835,53.02180835299805,['1'],[0.8036915620032232],52.82067420399835,52.82067420399835,1,,,,,,,,,,,,,,,,,,,,,,,,,,,,,,,,12,2022_May_10_1916,flanker-basic_v2,2021.2.3,59.97264983204968,
trialTable_practice.csv,img/renders/face781_-45.png,img/renders/face781_45.png,img/renders/face781_45.png,8,0,left,"[-0.058, 0]","[0.14, 0]","[-0.14, 0]",,,0,0,0,0,0,15,15,1,,,,,,,,,,,,,,,,,,,1.7845691382765532,54.738722438996774,54.937501152999175,['1'],[0.7136618809963693],54.738722438996774,54.738722438996774,1,,,,,,,,,,,,,,,,,,,,,,,,,,,,,,,,12,2022_May_10_1916,flanker-basic_v2,2021.2.3,59.97264983204968,
trialTable_practice.csv,img/renders/face994_45.png,img/renders/face994_45.png,img/renders/face994_45.png,5,1,right,"[0, 0]","[0.13, 0]","[-0.13, 0]",,,0,0,0,0,0,16,16,13,,,,,,,,,,,,,,,,,,,1.6492985971943888,56.55400444800034,56.754092736999155,['8'],[0.6733044339998742],56.55400444800034,56.55400444800034,1,,,,,,,,,,,,,,,,,,,,,,,,,,,,,,,,12,2022_May_10_1916,flanker-basic_v2,2021.2.3,59.97264983204968,
trialTable_practice.csv,img/renders/face559_-45.png,img/renders/face559_45.png,img/renders/face559_45.png,8,0,left,"[-0.058, 0]","[0.14, 0]","[-0.14, 0]",,,0,0,0,0,0,17,17,14,,,,,,,,,,,,,,,,,,,1.5450901803607215,58.21740829000191,58.42052359700028,['1'],[0.6473974940017797],58.21740829000191,58.21740829000191,1,,,,,,,,,,,,,,,,,,,,,,,,,,,,,,,,12,2022_May_10_1916,flanker-basic_v2,2021.2.3,59.97264983204968,
trialTable_practice.csv,img/renders/face269_45.png,img/renders/face269_-45.png,img/renders/face269_-45.png,7,0,right,"[0.058, 0]","[0.14, 0]","[-0.14, 0]",,,0,0,0,0,0,18,18,6,,,,,,,,,,,,,,,,,,,1.7785571142284569,59.792500060997554,60.00316856199788,['8'],[0.5748316280005383],59.792500060997554,59.792500060997554,1,,,,,,,,,,,,,,,,,,,,,,,,,,,,,,,,12,2022_May_10_1916,flanker-basic_v2,2021.2.3,59.97264983204968,
trialTable_practice.csv,img/renders/face800_-45.png,img/renders/face800_45.png,img/renders/face800_45.png,8,0,left,"[-0.058, 0]","[0.14, 0]","[-0.14, 0]",,,0,0,0,0,0,19,19,12,,,,,,,,,,,,,,,,,,,1.8577154308617234,61.60701631700067,61.819628999001,['1'],[0.7364263750059763],61.60701631700067,61.60701631700067,1,,,,,,,,,,,,,,,,,,,,,,,,,,,,,,,,12,2022_May_10_1916,flanker-basic_v2,2021.2.3,59.97264983204968,
trialTable_practice.csv,,,,,,,,,,,,0,0,0,0,,,,,,,,,,,,,,,,,,,,,,,,,,,,,,,63.46947929500311,None,63.46947929500311,None,8,97.57549439799914,63.46947929500311,None,,,,,,,,,,,,,,,,,,,,,,,,12,2022_May_10_1916,flanker-basic_v2,2021.2.3,59.97264983204968,
,,,,,,,,,,,,,,,,,,,,,,,,,,,,,,,,,,,,,,,,,,,,,,,,,,,,,,8,1.9332205169994268,161.09108198600006,None,,,,,,,,,,,,,,,,,,,,12,2022_May_10_1916,flanker-basic_v2,2021.2.3,59.97264983204968,
alt_trialTable_3.csv,img/rightArrow.png,img/rightArrow.png,img/rightArrow.png,5,1,right,"[0, 0]","[0.03, 0]","[-0.03, 0]",img/renders/face550_0.png,"[0.02, 0.02]",,,,,,,,,0,0,0,2,0,0,0,1,,,,,,,,,164.2934608400028,None,1.9078156312625252,,,,,,,1,,,,,,,,,,,,,163.0575934380031,None,8,1.2078925729947514,163.0575934380031,None,166.37987745000282,None,166.37987745000282,166.59191071100213,166.37987745000282,166.59191071100213,166.37987745000282,None,None,166.37987745000282,None,,,12,2022_May_10_1916,flanker-basic_v2,2021.2.3,59.97264983204968,
alt_trialTable_3.csv,img/leftArrow.png,img/rightArrow.png,img/rightArrow.png,8,0,left,"[0, 0]","[0.03, 0]","[-0.03, 0]",img/renders/face954_0.png,"[0.02, 0.02]",,,,,,,,,0,0,0,2,0,1,1,17,,,,,,,,,,,1.8306613226452906,,,,,,,1,,,,,,,,,,,,,,,,,,,168.35815496499708,168.35815496499708,168.35815496499708,168.55938337899715,168.35815496499708,168.55938337899715,168.35815496499708,168.35815496499708,None,168.35815496499708,168.35815496499708,,,12,2022_May_10_1916,flanker-basic_v2,2021.2.3,59.97264983204968,
alt_trialTable_3.csv,img/rightArrow.png,img/leftArrow.png,img/leftArrow.png,7,0,right,"[0, 0]","[0.03, 0]","[-0.03, 0]",img/renders/face188_0.png,"[0.02, 0.02]",,,,,,,,,0,0,0,2,0,2,2,0,,,,,,,,,,,1.9038076152304608,,,,,,,1,,,,,,,,,,,,,,,,,,,170.23262699099723,170.23262699099723,170.23262699099723,170.44203125000058,170.23262699099723,170.44203125000058,170.23262699099723,170.23262699099723,None,170.23262699099723,170.23262699099723,,,12,2022_May_10_1916,flanker-basic_v2,2021.2.3,59.97264983204968,
alt_trialTable_3.csv,img/leftArrow.png,img/rightArrow.png,img/rightArrow.png,8,0,left,"[0, 0]","[0.03, 0]","[-0.03, 0]",img/renders/face570_0.png,"[0.02, 0.02]",,,,,,,,,0,0,0,2,0,3,3,19,,,,,,,,,,,1.9869739478957915,,,,,,,1,,,,,,,,,,,,,,,,,,,172.19930698799726,172.19930698799726,172.19930698799726,172.40793008699984,172.19930698799726,172.40793008699984,172.19930698799726,172.19930698799726,None,172.19930698799726,172.19930698799726,,,12,2022_May_10_1916,flanker-basic_v2,2021.2.3,59.97264983204968,
alt_trialTable_3.csv,img/rightArrow.png,img/rightArrow.png,img/rightArrow.png,5,1,right,"[0, 0]","[0.03, 0]","[-0.03, 0]",img/renders/face401_0.png,"[0.02, 0.02]",,,,,,,,,0,0,0,2,0,4,4,2,,,,,,,,,,,1.8286573146292584,,,,,,,1,,,,,,,,,,,,,,,,,,,174.24823915099842,174.24823915099842,174.24823915099842,174.45657799499895,174.24823915099842,174.45657799499895,174.24823915099842,174.24823915099842,None,174.24823915099842,174.24823915099842,,,12,2022_May_10_1916,flanker-basic_v2,2021.2.3,59.97264983204968,
alt_trialTable_3.csv,img/leftArrow.png,img/leftArrow.png,img/leftArrow.png,6,1,left,"[0, 0]","[0.03, 0]","[-0.03, 0]",img/renders/face082_0.png,"[0.02, 0.02]",,,,,,,,,0,0,0,2,0,5,5,18,,,,,,,,,,,1.687374749498998,,,,,,,1,,,,,,,,,,,,,,,,,,,176.1510142729967,176.1510142729967,176.1510142729967,176.3559548389967,176.1510142729967,176.3559548389967,176.1510142729967,176.1510142729967,None,176.1510142729967,176.1510142729967,,,12,2022_May_10_1916,flanker-basic_v2,2021.2.3,59.97264983204968,
alt_trialTable_3.csv,img/rightArrow.png,img/rightArrow.png,img/rightArrow.png,5,1,right,"[0, 0]","[0.03, 0]","[-0.03, 0]",img/renders/face671_0.png,"[0.02, 0.02]",,,,,,,,,0,0,0,2,0,6,6,4,,,,,,,,,,,1.8476953907815632,,,,,,,1,,,,,,,,,,,,,,,,,,,177.89847430100053,177.89847430100053,177.89847430100053,178.10643318099756,177.89847430100053,178.10643318099756,177.89847430100053,177.89847430100053,None,177.89847430100053,177.89847430100053,,,12,2022_May_10_1916,flanker-basic_v2,2021.2.3,59.97264983204968,
alt_trialTable_3.csv,img/leftArrow.png,img/rightArrow.png,img/rightArrow.png,8,0,left,"[0, 0]","[0.03, 0]","[-0.03, 0]",img/renders/face887_0.png,"[0.02, 0.02]",,,,,,,,,0,0,0,2,0,7,7,10,,,,,,,,,,,1.8006012024048095,,,,,,,1,,,,,,,,,,,,,,,,,,,179.81255899200187,179.81255899200187,179.81255899200187,180.0221793189994,179.81255899200187,180.0221793189994,179.81255899200187,179.81255899200187,None,179.81255899200187,179.81255899200187,,,12,2022_May_10_1916,flanker-basic_v2,2021.2.3,59.97264983204968,
alt_trialTable_3.csv,img/leftArrow.png,img/rightArrow.png,img/rightArrow.png,8,0,left,"[0, 0]","[0.03, 0]","[-0.03, 0]",img/renders/face681_0.png,"[0.02, 0.02]",,,,,,,,,0,0,0,2,0,8,8,20,,,,,,,,,,,1.6673346693386772,,,,,,,1,,,,,,,,,,,,,,,,,,,181.6801025370005,181.6801025370005,181.6801025370005,181.8890549659991,181.6801025370005,181.8890549659991,181.6801025370005,181.6801025370005,None,181.6801025370005,181.6801025370005,,,12,2022_May_10_1916,flanker-basic_v2,2021.2.3,59.97264983204968,
alt_trialTable_3.csv,img/rightArrow.png,img/leftArrow.png,img/leftArrow.png,7,0,right,"[0, 0]","[0.03, 0]","[-0.03, 0]",img/renders/face466_0.png,"[0.02, 0.02]",,,,,,,,,0,0,0,2,0,9,9,13,,,,,,,,,,,1.660320641282565,,,,,,,1,,,,,,,,,,,,,,,,,,,183.40862152999762,183.40862152999762,183.40862152999762,183.62180085,183.40862152999762,183.62180085,183.40862152999762,183.40862152999762,None,183.40862152999762,183.40862152999762,,,12,2022_May_10_1916,flanker-basic_v2,2021.2.3,59.97264983204968,
alt_trialTable_3.csv,img/rightArrow.png,img/leftArrow.png,img/leftArrow.png,7,0,right,"[0, 0]","[0.03, 0]","[-0.03, 0]",img/renders/face514_0.png,"[0.02, 0.02]",,,,,,,,,0,0,0,2,0,10,10,25,,,,,,,,,,,1.845691382765531,,,,,,,1,,,,,,,,,,,,,,,,,,,185.13347239600262,185.13347239600262,185.13347239600262,185.33791443699738,185.13347239600262,185.33791443699738,185.13347239600262,185.13347239600262,None,185.13347239600262,185.13347239600262,,,12,2022_May_10_1916,flanker-basic_v2,2021.2.3,59.97264983204968,
alt_trialTable_3.csv,img/rightArrow.png,img/rightArrow.png,img/rightArrow.png,5,1,right,"[0, 0]","[0.03, 0]","[-0.03, 0]",img/renders/face498_0.png,"[0.02, 0.02]",,,,,,,,,0,0,0,2,0,11,11,8,,,,,,,,,,,1.6933867735470942,,,,,,,0,,,,,,,,,,,,,,,,,,,187.04682772100205,187.04682772100205,187.04682772100205,187.25330449199828,187.04682772100205,187.25330449199828,187.04682772100205,187.04682772100205,['1'],187.04682772100205,187.04682772100205,[0.7883467310020933],,12,2022_May_10_1916,flanker-basic_v2,2021.2.3,59.97264983204968,
alt_trialTable_3.csv,img/rightArrow.png,img/leftArrow.png,img/leftArrow.png,7,0,right,"[0, 0]","[0.03, 0]","[-0.03, 0]",img/renders/face030_0.png,"[0.02, 0.02]",,,,,,,,,0,0,0,2,0,12,12,29,,,,,,,,,,,1.586172344689379,,,,,,,0,,,,,,,,,,,,,,,,,,,187.90148966199922,None,187.90148966199922,188.10367014200165,187.90148966199922,188.10367014200165,187.90148966199922,None,None,187.90148966199922,None,,,12,2022_May_10_1916,flanker-basic_v2,2021.2.3,59.97264983204968,
alt_trialTable_3.csv,img/rightArrow.png,img/leftArrow.png,img/leftArrow.png,7,0,right,"[0, 0]","[0.03, 0]","[-0.03, 0]",img/renders/face260_0.png,"[0.02, 0.02]",,,,,,,,,0,0,0,2,0,13,13,12,,,,,,,,,,,1.6943887775551103,,,,,,,0,,,,,,,,,,,,,,,,,,,189.55914784700144,189.55914784700144,189.55914784700144,189.76992760600115,189.55914784700144,189.76992760600115,189.55914784700144,189.55914784700144,['1'],189.55914784700144,189.55914784700144,[0.680482078998466],,12,2022_May_10_1916,flanker-basic_v2,2021.2.3,59.97264983204968,
alt_trialTable_3.csv,img/leftArrow.png,img/leftArrow.png,img/leftArrow.png,6,1,left,"[0, 0]","[0.03, 0]","[-0.03, 0]",img/renders/face800_0.png,"[0.02, 0.02]",,,,,,,,,0,0,0,2,0,14,14,14,,,,,,,,,,,1.6052104208416833,,,,,,,0,,,,,,,,,,,,,,,,,,,190.32425600900024,None,190.32425600900024,190.5364375900026,190.32425600900024,190.5364375900026,190.32425600900024,None,['8'],190.32425600900024,None,[0.633696543998667],,12,2022_May_10_1916,flanker-basic_v2,2021.2.3,59.97264983204968,
alt_trialTable_3.csv,img/rightArrow.png,img/rightArrow.png,img/rightArrow.png,5,1,right,"[0, 0]","[0.03, 0]","[-0.03, 0]",img/renders/face916_0.png,"[0.02, 0.02]",,,,,,,,,0,0,0,2,0,15,15,26,,,,,,,,,,,1.5300601202404809,,,,,,,0,,,,,,,,,,,,,,,,,,,191.02913357900252,None,191.02913357900252,191.23435264400177,191.02913357900252,191.23435264400177,191.02913357900252,None,None,191.02913357900252,None,,,12,2022_May_10_1916,flanker-basic_v2,2021.2.3,59.97264983204968,
alt_trialTable_3.csv,img/rightArrow.png,img/rightArrow.png,img/rightArrow.png,5,1,right,"[0, 0]","[0.03, 0]","[-0.03, 0]",img/renders/face984_0.png,"[0.02, 0.02]",,,,,,,,,0,0,0,2,0,16,16,31,,,,,,,,,,,1.625250501002004,,,,,,,0,,,,,,,,,,,,,,,,,,,192.630697847002,192.630697847002,192.630697847002,192.83603708999726,192.630697847002,192.83603708999726,192.630697847002,192.630697847002,['1'],192.630697847002,192.630697847002,[0.5291034409965505],,12,2022_May_10_1916,flanker-basic_v2,2021.2.3,59.97264983204968,
alt_trialTable_3.csv,img/leftArrow.png,img/rightArrow.png,img/rightArrow.png,8,0,left,"[0, 0]","[0.03, 0]","[-0.03, 0]",img/renders/face556_0.png,"[0.02, 0.02]",,,,,,,,,0,0,0,2,0,17,17,15,,,,,,,,,,,1.531062124248497,,,,,,,0,,,,,,,,,,,,,,,,,,,193.24561051899946,None,193.24561051899946,193.45074671800103,193.24561051899946,193.45074671800103,193.24561051899946,None,None,193.24561051899946,None,,,12,2022_May_10_1916,flanker-basic_v2,2021.2.3,59.97264983204968,
alt_trialTable_3.csv,img/leftArrow.png,img/leftArrow.png,img/leftArrow.png,6,1,left,"[0, 0]","[0.03, 0]","[-0.03, 0]",img/renders/face698_0.png,"[0.02, 0.02]",,,,,,,,,0,0,0,2,0,18,18,24,,,,,,,,,,,1.6212424849699398,,,,,,,0,,,,,,,,,,,,,,,,,,,194.84058592600195,194.84058592600195,194.84058592600195,195.05231154600187,194.84058592600195,195.05231154600187,194.84058592600195,194.84058592600195,None,194.84058592600195,194.84058592600195,,,12,2022_May_10_1916,flanker-basic_v2,2021.2.3,59.97264983204968,
alt_trialTable_3.csv,img/leftArrow.png,img/rightArrow.png,img/rightArrow.png,8,0,left,"[0, 0]","[0.03, 0]","[-0.03, 0]",img/renders/face575_0.png,"[0.02, 0.02]",,,,,,,,,0,0,0,2,0,19,19,6,,,,,,,,,,,1.8937875751503006,,,,,,,0,,,,,,,,,,,,,,,,,,,196.52111714700004,196.52111714700004,196.52111714700004,196.73512981500244,196.52111714700004,196.73512981500244,196.52111714700004,196.52111714700004,None,196.52111714700004,196.52111714700004,,,12,2022_May_10_1916,flanker-basic_v2,2021.2.3,59.97264983204968,
alt_trialTable_3.csv,img/leftArrow.png,img/leftArrow.png,img/leftArrow.png,6,1,left,"[0, 0]","[0.03, 0]","[-0.03, 0]",img/renders/face058_0.png,"[0.02, 0.02]",,,,,,,,,0,0,0,2,0,20,20,16,,,,,,,,,,,1.628256513026052,,,,,,,0,,,,,,,,,,,,,,,,,,,198.47940307299723,198.47940307299723,198.47940307299723,198.6846781130007,198.47940307299723,198.6846781130007,198.47940307299723,198.47940307299723,None,198.47940307299723,198.47940307299723,,,12,2022_May_10_1916,flanker-basic_v2,2021.2.3,59.97264983204968,
alt_trialTable_3.csv,img/rightArrow.png,img/leftArrow.png,img/leftArrow.png,7,0,right,"[0, 0]","[0.03, 0]","[-0.03, 0]",img/renders/face713_0.png,"[0.02, 0.02]",,,,,,,,,0,0,0,2,0,21,21,30,,,,,,,,,,,1.875751503006012,,,,,,,0,,,,,,,,,,,,,,,,,,,200.17791260199738,200.17791260199738,200.17791260199738,200.38409917499666,200.17791260199738,200.38409917499666,200.17791260199738,200.17791260199738,None,200.17791260199738,200.17791260199738,,,12,2022_May_10_1916,flanker-basic_v2,2021.2.3,59.97264983204968,
alt_trialTable_3.csv,img/rightArrow.png,img/leftArrow.png,img/leftArrow.png,7,0,right,"[0, 0]","[0.03, 0]","[-0.03, 0]",img/renders/face803_0.png,"[0.02, 0.02]",,,,,,,,,0,0,0,2,0,22,22,3,,,,,,,,,,,1.8937875751503006,,,,,,,0,,,,,,,,,,,,,,,,,,,202.12523650500225,202.12523650500225,202.12523650500225,202.33238098899892,202.12523650500225,202.33238098899892,202.12523650500225,202.12523650500225,['1'],202.12523650500225,202.12523650500225,[0.6214261420027469],,12,2022_May_10_1916,flanker-basic_v2,2021.2.3,59.97264983204968,
alt_trialTable_3.csv,img/leftArrow.png,img/leftArrow.png,img/leftArrow.png,6,1,left,"[0, 0]","[0.03, 0]","[-0.03, 0]",img/renders/face235_0.png,"[0.02, 0.02]",,,,,,,,,0,0,0,2,0,23,23,28,,,,,,,,,,,1.8937875751503006,,,,,,,0,,,,,,,,,,,,,,,,,,,202.81111322099605,None,202.81111322099605,203.0169144850006,202.81111322099605,203.0169144850006,202.81111322099605,None,['8'],202.81111322099605,None,[0.7085735250002472],,12,2022_May_10_1916,flanker-basic_v2,2021.2.3,59.97264983204968,
alt_trialTable_3.csv,img/rightArrow.png,img/rightArrow.png,img/rightArrow.png,5,1,right,"[0, 0]","[0.03, 0]","[-0.03, 0]",img/renders/face910_0.png,"[0.02, 0.02]",,,,,,,,,0,0,0,2,0,24,24,22,,,,,,,,,,,1.9579158316633265,,,,,,,0,,,,,,,,,,,,,,,,,,,203.60473451599682,None,203.60473451599682,203.81680045100074,203.60473451599682,203.81680045100074,203.60473451599682,None,['1'],203.60473451599682,None,[0.6099821219977457],,12,2022_May_10_1916,flanker-basic_v2,2021.2.3,59.97264983204968,
alt_trialTable_3.csv,img/leftArrow.png,img/rightArrow.png,img/rightArrow.png,8,0,left,"[0, 0]","[0.03, 0]","[-0.03, 0]",img/renders/face543_0.png,"[0.02, 0.02]",,,,,,,,,0,0,0,2,0,25,25,27,,,,,,,,,,,1.531062124248497,,,,,,,0,,,,,,,,,,,,,,,,,,,204.28010507400177,None,204.28010507400177,204.48320586299815,204.28010507400177,204.48320586299815,204.28010507400177,None,['8'],204.28010507400177,None,[0.8555068459972972],,12,2022_May_10_1916,flanker-basic_v2,2021.2.3,59.97264983204968,
alt_trialTable_3.csv,img/leftArrow.png,img/leftArrow.png,img/leftArrow.png,6,1,left,"[0, 0]","[0.03, 0]","[-0.03, 0]",img/renders/face717_0.png,"[0.02, 0.02]",,,,,,,,,0,0,0,2,0,26,26,23,,,,,,,,,,,1.8316633266533064,,,,,,,0,,,,,,,,,,,,,,,,,,,205.21400378600083,None,205.21400378600083,205.41596007499902,205.21400378600083,205.41596007499902,205.21400378600083,None,['8'],205.21400378600083,None,[0.707960595995246],,12,2022_May_10_1916,flanker-basic_v2,2021.2.3,59.97264983204968,
alt_trialTable_3.csv,img/leftArrow.png,img/leftArrow.png,img/leftArrow.png,6,1,left,"[0, 0]","[0.03, 0]","[-0.03, 0]",img/renders/face696_0.png,"[0.02, 0.02]",,,,,,,,,0,0,0,2,0,27,27,21,,,,,,,,,,,1.7004008016032064,,,,,,,0,,,,,,,,,,,,,,,,,,,205.9928544669965,None,205.9928544669965,206.19713775599666,205.9928544669965,206.19713775599666,205.9928544669965,None,['8'],205.9928544669965,None,[0.6147920229996089],,12,2022_May_10_1916,flanker-basic_v2,2021.2.3,59.97264983204968,
alt_trialTable_3.csv,img/leftArrow.png,img/leftArrow.png,img/leftArrow.png,6,1,left,"[0, 0]","[0.03, 0]","[-0.03, 0]",img/renders/face043_0.png,"[0.02, 0.02]",,,,,,,,,0,0,0,2,0,28,28,11,,,,,,,,,,,1.527054108216433,,,,,,,0,,,,,,,,,,,,,,,,,,,206.6727843059998,None,206.6727843059998,206.88249324999924,206.6727843059998,206.88249324999924,206.6727843059998,None,['8'],206.6727843059998,None,[0.9599914150021505],,12,2022_May_10_1916,flanker-basic_v2,2021.2.3,59.97264983204968,
alt_trialTable_3.csv,img/rightArrow.png,img/rightArrow.png,img/rightArrow.png,5,1,right,"[0, 0]","[0.03, 0]","[-0.03, 0]",img/renders/face178_0.png,"[0.02, 0.02]",,,,,,,,,0,0,0,2,0,29,29,9,,,,,,,,,,,1.5470941883767535,,,,,,,0,,,,,,,,,,,,,,,,,,,207.71193428200058,None,207.71193428200058,207.91563074399892,207.71193428200058,207.91563074399892,207.71193428200058,None,['1'],207.71193428200058,None,[0.5929081079957541],,12,2022_May_10_1916,flanker-basic_v2,2021.2.3,59.97264983204968,
alt_trialTable_3.csv,img/rightArrow.png,img/leftArrow.png,img/leftArrow.png,7,0,right,"[0, 0]","[0.03, 0]","[-0.03, 0]",img/renders/face590_0.png,"[0.02, 0.02]",,,,,,,,,0,0,0,2,0,30,30,5,,,,,,,,,,,1.8507014028056112,,,,,,,0,,,,,,,,,,,,,,,,,,,208.37802715600264,None,208.37802715600264,208.58227564099798,208.37802715600264,208.58227564099798,208.37802715600264,None,['1'],208.37802715600264,None,[0.7301183579984354],,12,2022_May_10_1916,flanker-basic_v2,2021.2.3,59.97264983204968,
alt_trialTable_3.csv,img/leftArrow.png,img/rightArrow.png,img/rightArrow.png,8,0,left,"[0, 0]","[0.03, 0]","[-0.03, 0]",img/renders/face900_0.png,"[0.02, 0.02]",,,,,,,,,0,0,0,2,0,31,31,7,,,,,,,,,,,1.557114228456914,,,,,,,0,,,,,,,,,,,,,,,,,,,209.17525685099827,None,209.17525685099827,209.38164987100026,209.17525685099827,209.38164987100026,209.17525685099827,None,['8'],209.17525685099827,None,[0.6584650830045575],,12,2022_May_10_1916,flanker-basic_v2,2021.2.3,59.97264983204968,
,,,,,,,,,,,,,,,,,,,,,,,,,,,,,,,,,,,,,,,,,,,,,,,,,,,,,,,,,,,,,,,,,,,,,,,,,,,,3,,,,,,
