whichBlock,middleStim,leftStim,rightStim,stimNum,congruent,target,locationC,locationR,locationL,straightFace,imageSize,prac_block_loop.thisRepN,prac_block_loop.thisTrialN,prac_block_loop.thisN,prac_block_loop.thisIndex,prac_trial_loop.thisRepN,prac_trial_loop.thisTrialN,prac_trial_loop.thisN,prac_trial_loop.thisIndex,first_block_loop.thisRepN,first_block_loop.thisTrialN,first_block_loop.thisN,first_block_loop.thisIndex,firstTrial_loop.thisRepN,firstTrial_loop.thisTrialN,firstTrial_loop.thisN,firstTrial_loop.thisIndex,prac_blockText.started,prac_blockText.stopped,prac_reminder_text.started,prac_reminder_text.stopped,prac_reminder_keyResp.keys,prac_reminder_keyResp.rt,prac_reminder_keyResp.started,prac_reminder_keyResp.stopped,initFixation_img.started,initFixation_img.stopped,ISI,prac_centerImg.started,prac_centerImg.stopped,prac_stim_keyResp.keys,prac_stim_keyResp.started,prac_stim_keyResp.stopped,accuracy,prac_stim_keyResp.rt,prac_blockFeed_text.started,prac_blockFeed_text.stopped,prac_pressContinue.started,prac_pressContinue.stopped,prac_blockFeed_keyResp.keys,prac_blockFeed_keyResp.rt,prac_blockFeed_keyResp.started,prac_blockFeed_keyResp.stopped,key_resp_counterbalance1.keys,key_resp_counterbalance1.rt,key_resp_counterbalance1.started,key_resp_counterbalance1.stopped,firstT_text1.started,firstT_text1.stopped,firstT_key.keys,firstT_key.rt,firstT_key.started,firstT_key.stopped,bigFace_2.started,bigFace_2.stopped,cover_background.started,cover_background.stopped,task_centerImg_3.started,task_centerImg_3.stopped,task_fixImg_3.started,task_fixImg_3.stopped,first_task_stim_keyResp.keys,first_task_stim_keyResp.started,first_task_stim_keyResp.stopped,id,date,expName,psychopyVersion,frameRate,
trialTable_practice.csv,img/renders/face704_45.png,img/renders/face704_45.png,img/renders/face704_45.png,5,1,right,"[0, 0]","[0.13, 0]","[-0.13, 0]",,,0,0,0,0,0,0,0,9,,,,,,,,,26.165421805999358,None,26.165421805999358,None,8,0.7009095200046431,26.165421805999358,None,26.9239307109965,None,1.8887775551102204,28.987252086997614,29.19812897600059,None,28.987252086997614,None,0,,,,,,,,,,,,,,,,,,,,,,,,,,,,,,,12,2022_May_10_1921,flanker-basic_v2,2021.2.3,59.21478728876914,
trialTable_practice.csv,img/renders/face037_-45.png,img/renders/face037_45.png,img/renders/face037_45.png,8,0,left,"[-0.058, 0]","[0.14, 0]","[-0.14, 0]",,,0,0,0,0,0,1,1,3,,,,,,,,,,,,,,,,,,,1.6362725450901803,30.915027287999692,31.128970404999563,['1'],30.915027287999692,30.915027287999692,1,[0.4433661969960667],,,,,,,,,,,,,,,,,,,,,,,,,,,,,,12,2022_May_10_1921,flanker-basic_v2,2021.2.3,59.21478728876914,
trialTable_practice.csv,img/renders/face418_45.png,img/renders/face418_-45.png,img/renders/face418_-45.png,7,0,right,"[0.058, 0]","[0.14, 0]","[-0.14, 0]",,,0,0,0,0,0,2,2,19,,,,,,,,,,,,,,,,,,,1.7294589178356714,32.59799382100027,32.81373679999524,['8'],32.59799382100027,32.59799382100027,1,[0.39970870199613273],,,,,,,,,,,,,,,,,,,,,,,,,,,,,,12,2022_May_10_1921,flanker-basic_v2,2021.2.3,59.21478728876914,
trialTable_practice.csv,img/renders/face994_45.png,img/renders/face994_45.png,img/renders/face994_45.png,5,1,right,"[0, 0]","[0.13, 0]","[-0.13, 0]",,,0,0,0,0,0,3,3,13,,,,,,,,,,,,,,,,,,,1.5781563126252505,34.36029721600062,34.563519792995066,['8'],34.36029721600062,34.36029721600062,1,[0.3704507099973853],,,,,,,,,,,,,,,,,,,,,,,,,,,,,,12,2022_May_10_1921,flanker-basic_v2,2021.2.3,59.21478728876914,
trialTable_practice.csv,img/renders/face586_-45.png,img/renders/face586_-45.png,img/renders/face586_-45.png,6,1,left,"[0, 0]","[0.13, 0]","[-0.13, 0]",,,0,0,0,0,0,4,4,2,,,,,,,,,,,,,,,,,,,1.9468937875751504,35.97488004699699,36.179754671997216,['1'],35.97488004699699,35.97488004699699,1,[0.41501758900267305],,,,,,,,,,,,,,,,,,,,,,,,,,,,,,12,2022_May_10_1921,flanker-basic_v2,2021.2.3,59.21478728876914,
trialTable_practice.csv,img/renders/face781_-45.png,img/renders/face781_45.png,img/renders/face781_45.png,8,0,left,"[-0.058, 0]","[0.14, 0]","[-0.14, 0]",,,0,0,0,0,0,5,5,1,,,,,,,,,,,,,,,,,,,1.9328657314629258,37.959169535999536,38.16236481699889,['1'],37.959169535999536,37.959169535999536,1,[0.4118838579961448],,,,,,,,,,,,,,,,,,,,,,,,,,,,,,12,2022_May_10_1921,flanker-basic_v2,2021.2.3,59.21478728876914,
trialTable_practice.csv,img/renders/face211_45.png,img/renders/face211_45.png,img/renders/face211_45.png,5,1,right,"[0, 0]","[0.13, 0]","[-0.13, 0]",,,0,0,0,0,0,6,6,4,,,,,,,,,,,,,,,,,,,1.5240480961923848,39.92082563800068,40.12664387499535,['8'],39.92082563800068,39.92082563800068,1,[0.3880323409975972],,,,,,,,,,,,,,,,,,,,,,,,,,,,,,12,2022_May_10_1921,flanker-basic_v2,2021.2.3,59.21478728876914,
trialTable_practice.csv,img/renders/face028_45.png,img/renders/face028_-45.png,img/renders/face028_-45.png,7,0,right,"[0.058, 0]","[0.14, 0]","[-0.14, 0]",,,0,0,0,0,0,7,7,17,,,,,,,,,,,,,,,,,,,1.5781563126252505,41.47650715000054,41.677973985999415,"['1', '8']",41.47650715000054,41.47650715000054,0,"[0.45824545199866407, 0.626582528995641]",,,,,,,,,,,,,,,,,,,,,,,,,,,,,,12,2022_May_10_1921,flanker-basic_v2,2021.2.3,59.21478728876914,
trialTable_practice.csv,img/renders/face559_-45.png,img/renders/face559_45.png,img/renders/face559_45.png,8,0,left,"[-0.058, 0]","[0.14, 0]","[-0.14, 0]",,,0,0,0,0,0,8,8,14,,,,,,,,,,,,,,,,,,,1.9689378757515028,43.09210175599583,43.294309175995295,['1'],43.09210175599583,43.09210175599583,1,[0.4948059550006292],,,,,,,,,,,,,,,,,,,,,,,,,,,,,,12,2022_May_10_1921,flanker-basic_v2,2021.2.3,59.21478728876914,
trialTable_practice.csv,img/renders/face602_-45.png,img/renders/face602_45.png,img/renders/face602_45.png,8,0,left,"[-0.058, 0]","[0.14, 0]","[-0.14, 0]",,,0,0,0,0,0,9,9,0,,,,,,,,,,,,,,,,,,,1.622244488977956,45.10433955500048,45.30848092799715,['1'],45.10433955500048,45.10433955500048,1,[0.43456093299755594],,,,,,,,,,,,,,,,,,,,,,,,,,,,,,12,2022_May_10_1921,flanker-basic_v2,2021.2.3,59.21478728876914,
trialTable_practice.csv,img/renders/face351_45.png,img/renders/face351_-45.png,img/renders/face351_-45.png,7,0,right,"[0.058, 0]","[0.14, 0]","[-0.14, 0]",,,0,0,0,0,0,10,10,10,,,,,,,,,,,,,,,,,,,1.5220440881763526,46.76097907399526,46.97709084500093,['8'],46.76097907399526,46.76097907399526,1,[0.4187717610038817],,,,,,,,,,,,,,,,,,,,,,,,,,,,,,12,2022_May_10_1921,flanker-basic_v2,2021.2.3,59.21478728876914,
trialTable_practice.csv,img/renders/face581_45.png,img/renders/face581_45.png,img/renders/face581_45.png,5,1,right,"[0, 0]","[0.13, 0]","[-0.13, 0]",,,0,0,0,0,0,11,11,8,,,,,,,,,,,,,,,,,,,1.5651302605210422,48.326564697999856,48.52552365700103,['8'],48.326564697999856,48.326564697999856,1,[0.40125428899773397],,,,,,,,,,,,,,,,,,,,,,,,,,,,,,12,2022_May_10_1921,flanker-basic_v2,2021.2.3,59.21478728876914,
trialTable_practice.csv,img/renders/face482_45.png,img/renders/face482_45.png,img/renders/face482_45.png,5,1,right,"[0, 0]","[0.13, 0]","[-0.13, 0]",,,0,0,0,0,0,12,12,15,,,,,,,,,,,,,,,,,,,1.8727454909819639,49.92130026299856,50.126735181002005,['8'],49.92130026299856,49.92130026299856,1,[0.4696079429995734],,,,,,,,,,,,,,,,,,,,,,,,,,,,,,12,2022_May_10_1921,flanker-basic_v2,2021.2.3,59.21478728876914,
trialTable_practice.csv,img/renders/face040_45.png,img/renders/face040_-45.png,img/renders/face040_-45.png,7,0,right,"[0.058, 0]","[0.14, 0]","[-0.14, 0]",,,0,0,0,0,0,13,13,7,,,,,,,,,,,,,,,,,,,1.9128256513026052,51.84223359399766,52.04097333399841,['8'],51.84223359399766,51.84223359399766,1,[0.4485016220060061],,,,,,,,,,,,,,,,,,,,,,,,,,,,,,12,2022_May_10_1921,flanker-basic_v2,2021.2.3,59.21478728876914,
trialTable_practice.csv,img/renders/face800_-45.png,img/renders/face800_45.png,img/renders/face800_45.png,8,0,left,"[-0.058, 0]","[0.14, 0]","[-0.14, 0]",,,0,0,0,0,0,14,14,12,,,,,,,,,,,,,,,,,,,1.945891783567134,53.797882630999084,54.00795529499737,['1'],53.797882630999084,53.797882630999084,1,[0.4639757210024982],,,,,,,,,,,,,,,,,,,,,,,,,,,,,,12,2022_May_10_1921,flanker-basic_v2,2021.2.3,59.21478728876914,
trialTable_practice.csv,img/renders/face634_-45.png,img/renders/face634_-45.png,img/renders/face634_-45.png,6,1,left,"[0, 0]","[0.13, 0]","[-0.13, 0]",,,0,0,0,0,0,15,15,11,,,,,,,,,,,,,,,,,,,1.785571142284569,55.78715042299882,55.99043783199886,['1'],55.78715042299882,55.78715042299882,1,[0.5176641819998622],,,,,,,,,,,,,,,,,,,,,,,,,,,,,,12,2022_May_10_1921,flanker-basic_v2,2021.2.3,59.21478728876914,
trialTable_practice.csv,img/renders/face269_45.png,img/renders/face269_-45.png,img/renders/face269_-45.png,7,0,right,"[0.058, 0]","[0.14, 0]","[-0.14, 0]",,,0,0,0,0,0,16,16,6,,,,,,,,,,,,,,,,,,,1.814629258517034,57.60465617499722,57.80693513099686,['8'],57.60465617499722,57.60465617499722,1,[0.5901128269979381],,,,,,,,,,,,,,,,,,,,,,,,,,,,,,12,2022_May_10_1921,flanker-basic_v2,2021.2.3,59.21478728876914,
trialTable_practice.csv,img/renders/face395_-45.png,img/renders/face395_-45.png,img/renders/face395_-45.png,6,1,left,"[0, 0]","[0.13, 0]","[-0.13, 0]",,,0,0,0,0,0,17,17,5,,,,,,,,,,,,,,,,,,,1.5250501002004007,59.451729207001335,59.656561623000016,['1'],59.451729207001335,59.451729207001335,1,[0.5831659200048307],,,,,,,,,,,,,,,,,,,,,,,,,,,,,,12,2022_May_10_1921,flanker-basic_v2,2021.2.3,59.21478728876914,
trialTable_practice.csv,img/renders/face120_-45.png,img/renders/face120_-45.png,img/renders/face120_-45.png,6,1,left,"[0, 0]","[0.13, 0]","[-0.13, 0]",,,0,0,0,0,0,18,18,16,,,,,,,,,,,,,,,,,,,1.9468937875751504,61.019281635999505,61.22069318899594,['1'],61.019281635999505,61.019281635999505,1,[0.5126951819984242],,,,,,,,,,,,,,,,,,,,,,,,,,,,,,12,2022_May_10_1921,flanker-basic_v2,2021.2.3,59.21478728876914,
trialTable_practice.csv,img/renders/face013_-45.png,img/renders/face013_-45.png,img/renders/face013_-45.png,6,1,left,"[0, 0]","[0.13, 0]","[-0.13, 0]",,,0,0,0,0,0,19,19,18,,,,,,,,,,,,,,,,,,,1.743486973947896,63.003412019999814,63.205891067002085,['1'],63.003412019999814,63.003412019999814,1,[0.314438766996318],,,,,,,,,,,,,,,,,,,,,,,,,,,,,,12,2022_May_10_1921,flanker-basic_v2,2021.2.3,59.21478728876914,
trialTable_practice.csv,,,,,,,,,,,,0,0,0,0,,,,,,,,,,,,,,,,,,,,,,,,,,,,,,,64.76070166299905,None,64.76070166299905,None,8,1.397174495003128,64.76070166299905,None,,,,,,,,,,,,,,,,,,,,,,12,2022_May_10_1921,flanker-basic_v2,2021.2.3,59.21478728876914,
,,,,,,,,,,,,,,,,,,,,,,,,,,,,,,,,,,,,,,,,,,,,,,,,,,,,,,8,0.7428158089969656,66.20326414099691,None,,,,,,,,,,,,,,,,,,12,2022_May_10_1921,flanker-basic_v2,2021.2.3,59.21478728876914,
alt_trialTable_4.csv,img/leftArrow.png,img/rightArrow.png,img/rightArrow.png,8,0,left,"[0, 0]","[0.03, 0]","[-0.03, 0]",img/renders/face315_0.png,"[0.02, 0.02]",,,,,,,,,0,0,0,3,0,0,0,27,,,,,,,,,67.63809230699553,None,1.9869739478957915,,,,,,1,,,,,,,,,,,,,,66.98158909199992,None,8,0.626177286998427,66.98158909199992,None,69.72041144200193,None,69.72041144200193,69.92087512800208,69.72041144200193,69.92087512800208,69.72041144200193,None,None,69.72041144200193,None,12,2022_May_10_1921,flanker-basic_v2,2021.2.3,59.21478728876914,
alt_trialTable_4.csv,img/leftArrow.png,img/leftArrow.png,img/leftArrow.png,6,1,left,"[0, 0]","[0.03, 0]","[-0.03, 0]",img/renders/face125_0.png,"[0.02, 0.02]",,,,,,,,,0,0,0,3,0,1,1,31,,,,,,,,,,,1.7094188376753507,,,,,,1,,,,,,,,,,,,,,,,,,,,71.78414060700015,71.78414060700015,71.78414060700015,71.98654695200094,71.78414060700015,71.98654695200094,71.78414060700015,71.78414060700015,None,71.78414060700015,71.78414060700015,12,2022_May_10_1921,flanker-basic_v2,2021.2.3,59.21478728876914,
,,,,,,,,,,,,,,,,,,,,,,,,,,,,,,,,,,,,,,1.6402805611222446,,,,,,,,,,,,,,,,,,,,,,,,,,,,,,,,,,,,,,,,,,
